new_trial.started,new_trial.stopped,key_resp.keys,key_resp.rt,key_resp.duration,participant,session,date,expName,psychopyVersion,OS,frameRate,trial.started,trial.stopped,continue_from_intro.keys,continue_from_intro.rt,continue_from_intro.duration,frame0_2.started,frame0_2.stopped,key_resp_2.keys,key_resp_2.rt,key_resp_2.duration,ending.started,ending.stopped,key_resp_5.keys,key_resp_5.rt,key_resp_5.duration,trials.thisRepN,trials.thisTrialN,trials.thisN,trials.thisIndex,trials.ran,instruction,action,frame0,frame1,frame2,frame3,frame4,frame5,frame6,frame7
0.001,1.863,space,1.843,,204822,001,2024-02-14_15h09.37.552,iwisdm_med_pcy,2023.2.3,MacIntel,62.5,,,,,,,,,,,,,,,,,,,,,,,,,,,,,,
,,,,,204822,001,2024-02-14_15h09.37.552,iwisdm_med_pcy,2023.2.3,MacIntel,62.5,1.867,12.732,space,10.836,,12.733,65.499,space,52.733,,65.5,66.063,n,0.537,,0,0,0,15,1,"observe object 1, observe object 2, delay, observe object 3, observe object 4, observe object 5, observe object 6, observe object 7, if object of object 5 equal object of object 1 , then category of object 2 not equal cars , else object of object 7 not equal object of object 4 and object of object 3 not equal object of object 6 ?",false,./for_xx/trial300/frames/epoch0.png,./for_xx/trial300/frames/epoch1.png,./for_xx/trial300/frames/epoch2.png,./for_xx/trial300/frames/epoch3.png,./for_xx/trial300/frames/epoch4.png,./for_xx/trial300/frames/epoch5.png,./for_xx/trial300/frames/epoch6.png,./for_xx/trial300/frames/epoch7.png
,,,,,204822,001,2024-02-14_15h09.37.552,iwisdm_med_pcy,2023.2.3,MacIntel,62.5,66.064,87.108,space,21.033,,87.109,115.82,space,28.688,,115.82,116.085,y,0.259,,0,1,1,30,1,"observe object 1, observe object 2, observe object 3, observe object 4, observe object 5, delay, observe object 6, if location of object 3 equal location of object 4 , then location of object 1 not equal bottom right and location of object 2 equal location of object 5 , else location of object 6 not equal top left ?",true,./for_xx/trial2/frames/epoch0.png,./for_xx/trial2/frames/epoch1.png,./for_xx/trial2/frames/epoch2.png,./for_xx/trial2/frames/epoch3.png,./for_xx/trial2/frames/epoch4.png,./for_xx/trial2/frames/epoch5.png,./for_xx/trial2/frames/epoch6.png,./for_xx/nullframe.png
,,,,,204822,001,2024-02-14_15h09.37.552,iwisdm_med_pcy,2023.2.3,MacIntel,62.5,116.086,192.046,space,75.944,,192.046,215.522,space,23.454,,215.522,215.891,n,0.358,,0,2,2,31,1,"observe object 1, observe object 2, observe object 3, observe object 4, observe object 5, observe object 6, observe object 7, if location of object 1 equal location of object 5 or location of object 3 equal bottom right , then location of object 7 not equal location of object 6 , else location of object 2 not equal location of object 4 ?",false,./for_xx/trial5/frames/epoch0.png,./for_xx/trial5/frames/epoch1.png,./for_xx/trial5/frames/epoch2.png,./for_xx/trial5/frames/epoch3.png,./for_xx/trial5/frames/epoch4.png,./for_xx/trial5/frames/epoch5.png,./for_xx/trial5/frames/epoch6.png,./for_xx/nullframe.png
,,,,,204822,001,2024-02-14_15h09.37.552,iwisdm_med_pcy,2023.2.3,MacIntel,62.5,215.892,249.4,space,33.481,,249.401,278.811,space,29.388,,278.811,279.606,y,0.79,,0,3,3,24,1,"observe object 1, observe object 2, observe object 3, observe object 4, observe object 5, observe object 6, observe object 7, observe object 8, if object of object 4 not equal object of object 1 , then object of object 7 not equal object of object 6 and object of object 3 not equal object of object 5 , else object of object 2 equal object of object 8 ?",true,./for_xx/trial209/frames/epoch0.png,./for_xx/trial209/frames/epoch1.png,./for_xx/trial209/frames/epoch2.png,./for_xx/trial209/frames/epoch3.png,./for_xx/trial209/frames/epoch4.png,./for_xx/trial209/frames/epoch5.png,./for_xx/trial209/frames/epoch6.png,./for_xx/trial209/frames/epoch7.png
,,,,,204822,001,2024-02-14_15h09.37.552,iwisdm_med_pcy,2023.2.3,MacIntel,62.5,279.607,280.58,space,0.957,,280.581,303.825,space,23.208,,303.826,304.413,n,0.573,,0,4,4,14,1,"observe object 1, delay, observe object 2, observe object 3, observe object 4, observe object 5, observe object 6, observe object 7, if object of object 2 equal object of object 3 , then category of object 6 not equal lighting and object of object 1 not equal object of object 4 , else category of object 7 equal category of object 5 ?",false,./for_xx/trial307/frames/epoch0.png,./for_xx/trial307/frames/epoch1.png,./for_xx/trial307/frames/epoch2.png,./for_xx/trial307/frames/epoch3.png,./for_xx/trial307/frames/epoch4.png,./for_xx/trial307/frames/epoch5.png,./for_xx/trial307/frames/epoch6.png,./for_xx/trial307/frames/epoch7.png
,,,,,204822,001,2024-02-14_15h09.37.552,iwisdm_med_pcy,2023.2.3,MacIntel,62.5,304.413,304.954,space,0.517,,304.954,328.436,space,23.447,,328.437,328.887,n,0.446,,0,5,5,9,1,"observe object 1, observe object 2, observe object 3, observe object 4, observe object 5, observe object 6, observe object 7, if location of object 6 not equal location of object 5 , then location of object 3 equal top left or location of object 2 not equal location of object 1 , else location of object 4 not equal location of object 7 ?",false,./for_xx/trial8/frames/epoch0.png,./for_xx/trial8/frames/epoch1.png,./for_xx/trial8/frames/epoch2.png,./for_xx/trial8/frames/epoch3.png,./for_xx/trial8/frames/epoch4.png,./for_xx/trial8/frames/epoch5.png,./for_xx/trial8/frames/epoch6.png,./for_xx/nullframe.png
,,,,,204822,001,2024-02-14_15h09.37.552,iwisdm_med_pcy,2023.2.3,MacIntel,62.5,328.889,330.962,space,2.058,,330.963,355.102,space,24.108,,355.103,355.818,n,0.713,,0,6,6,44,1,"observe object 1, observe object 2, observe object 3, observe object 4, observe object 5, observe object 6, observe object 7, observe object 8, if category of object 3 equal category of object 4 , then category of object 1 not equal category of object 2 , else category of object 7 equal category of object 8 and category of object 6 equal category of object 5 ?",false,./for_xx/trial107/frames/epoch0.png,./for_xx/trial107/frames/epoch1.png,./for_xx/trial107/frames/epoch2.png,./for_xx/trial107/frames/epoch3.png,./for_xx/trial107/frames/epoch4.png,./for_xx/trial107/frames/epoch5.png,./for_xx/trial107/frames/epoch6.png,./for_xx/trial107/frames/epoch7.png
,,,,,204822,001,2024-02-14_15h09.37.552,iwisdm_med_pcy,2023.2.3,MacIntel,62.5,355.819,356.562,space,0.714,,356.563,377.166,space,20.582,,377.166,377.438,y,0.267,,0,7,7,23,1,"observe object 1, delay, observe object 2, observe object 3, observe object 4, observe object 5, observe object 6, if object of object 3 equal object of object 4 , then location of object 1 equal bottom left or location of object 2 equal location of object 5 , else category of object 6 not equal couches ?",true,./for_xx/trial306/frames/epoch0.png,./for_xx/trial306/frames/epoch1.png,./for_xx/trial306/frames/epoch2.png,./for_xx/trial306/frames/epoch3.png,./for_xx/trial306/frames/epoch4.png,./for_xx/trial306/frames/epoch5.png,./for_xx/trial306/frames/epoch6.png,./for_xx/trial306/frames/epoch7.png
,,,,,204822,001,2024-02-14_15h09.37.552,iwisdm_med_pcy,2023.2.3,MacIntel,62.5,377.439,377.78,space,0.321,,377.78,398.713,space,20.91,,398.713,398.978,y,0.259,,0,8,8,38,1,"observe object 1, observe object 2, observe object 3, observe object 4, observe object 5, observe object 6, observe object 7, observe object 8, if location of object 4 not equal location of object 3 or object of object 2 equal object of object 1 , then object of object 5 equal object of object 6 , else category of object 7 equal category of object 8 ?",true,./for_xx/trial310/frames/epoch0.png,./for_xx/trial310/frames/epoch1.png,./for_xx/trial310/frames/epoch2.png,./for_xx/trial310/frames/epoch3.png,./for_xx/trial310/frames/epoch4.png,./for_xx/trial310/frames/epoch5.png,./for_xx/trial310/frames/epoch6.png,./for_xx/trial310/frames/epoch7.png
,,,,,204822,001,2024-02-14_15h09.37.552,iwisdm_med_pcy,2023.2.3,MacIntel,62.5,398.979,400.801,space,1.797,,400.801,424.47,space,23.644,,424.47,424.921,n,0.436,,0,9,9,36,1,"observe object 1, observe object 2, observe object 3, observe object 4, observe object 5, delay, observe object 6, observe object 7, if category of object 2 not equal category of object 7 , then object of object 1 equal object of object 3 , else object of object 4 equal object of object 5 and category of object 6 not equal benches ?",false,./for_xx/trial316/frames/epoch0.png,./for_xx/trial316/frames/epoch1.png,./for_xx/trial316/frames/epoch2.png,./for_xx/trial316/frames/epoch3.png,./for_xx/trial316/frames/epoch4.png,./for_xx/trial316/frames/epoch5.png,./for_xx/trial316/frames/epoch6.png,./for_xx/trial316/frames/epoch7.png
,,,,,204822,001,2024-02-14_15h09.37.552,iwisdm_med_pcy,2023.2.3,MacIntel,62.5,424.922,426.204,space,1.268,,426.204,455.104,space,28.875,,455.104,455.416,y,0.309,,0,10,10,13,1,"observe object 1, observe object 2, observe object 3, delay, observe object 4, delay, observe object 5, observe object 6, if category of object 6 equal benches and location of object 3 not equal top left , then location of object 2 not equal location of object 1 , else category of object 4 not equal category of object 5 ?",true,./for_xx/trial314/frames/epoch0.png,./for_xx/trial314/frames/epoch1.png,./for_xx/trial314/frames/epoch2.png,./for_xx/trial314/frames/epoch3.png,./for_xx/trial314/frames/epoch4.png,./for_xx/trial314/frames/epoch5.png,./for_xx/trial314/frames/epoch6.png,./for_xx/trial314/frames/epoch7.png
,,,,,204822,001,2024-02-14_15h09.37.552,iwisdm_med_pcy,2023.2.3,MacIntel,62.5,455.417,456.852,space,1.413,,456.853,478.836,space,21.96,,478.837,479.161,n,0.319,,0,11,11,8,1,"observe object 1, observe object 2, observe object 3, observe object 4, observe object 5, observe object 6, observe object 7, if location of object 7 equal location of object 1 , then location of object 5 equal location of object 6 or location of object 3 equal location of object 4 , else location of object 2 equal top right ?",false,./for_xx/trial1/frames/epoch0.png,./for_xx/trial1/frames/epoch1.png,./for_xx/trial1/frames/epoch2.png,./for_xx/trial1/frames/epoch3.png,./for_xx/trial1/frames/epoch4.png,./for_xx/trial1/frames/epoch5.png,./for_xx/trial1/frames/epoch6.png,./for_xx/nullframe.png
,,,,,204822,001,2024-02-14_15h09.37.552,iwisdm_med_pcy,2023.2.3,MacIntel,62.5,479.162,479.736,space,0.56,,479.736,504.449,space,24.687,,504.449,504.754,y,0.29,,0,12,12,11,1,"observe object 1, observe object 2, observe object 3, delay, observe object 4, observe object 5, observe object 6, observe object 7, if object of object 7 not equal object of object 3 and location of object 6 not equal location of object 4 , then category of object 1 not equal category of object 2 , else category of object 5 equal benches ?",true,./for_xx/trial312/frames/epoch0.png,./for_xx/trial312/frames/epoch1.png,./for_xx/trial312/frames/epoch2.png,./for_xx/trial312/frames/epoch3.png,./for_xx/trial312/frames/epoch4.png,./for_xx/trial312/frames/epoch5.png,./for_xx/trial312/frames/epoch6.png,./for_xx/trial312/frames/epoch7.png
,,,,,204822,001,2024-02-14_15h09.37.552,iwisdm_med_pcy,2023.2.3,MacIntel,62.5,504.755,505.397,space,0.617,,505.397,541.088,space,35.666,,541.088,542.137,n,1.044,,0,13,13,10,1,"observe object 1, observe object 2, observe object 3, observe object 4, observe object 5, observe object 6, observe object 7, observe object 8, if object of object 3 equal object of object 5 , then location of object 2 not equal location of object 1 and category of object 6 not equal category of object 4 , else location of object 8 not equal location of object 7 ?",false,./for_xx/trial315/frames/epoch0.png,./for_xx/trial315/frames/epoch1.png,./for_xx/trial315/frames/epoch2.png,./for_xx/trial315/frames/epoch3.png,./for_xx/trial315/frames/epoch4.png,./for_xx/trial315/frames/epoch5.png,./for_xx/trial315/frames/epoch6.png,./for_xx/trial315/frames/epoch7.png
,,,,,204822,001,2024-02-14_15h09.37.552,iwisdm_med_pcy,2023.2.3,MacIntel,62.5,542.138,542.658,space,0.502,,542.658,567.625,space,24.944,,567.626,568.071,y,0.429,,0,14,14,1,1,"observe object 1, observe object 2, observe object 3, observe object 4, observe object 5, observe object 6, observe object 7, observe object 8, if object of object 5 equal object of object 6 , then object of object 7 equal object of object 4 or object of object 8 not equal object of object 3 , else object of object 1 not equal object of object 2 ?",true,./for_xx/trial204/frames/epoch0.png,./for_xx/trial204/frames/epoch1.png,./for_xx/trial204/frames/epoch2.png,./for_xx/trial204/frames/epoch3.png,./for_xx/trial204/frames/epoch4.png,./for_xx/trial204/frames/epoch5.png,./for_xx/trial204/frames/epoch6.png,./for_xx/trial204/frames/epoch7.png
,,,,,204822,001,2024-02-14_15h09.37.552,iwisdm_med_pcy,2023.2.3,MacIntel,62.5,568.073,568.708,space,0.618,,568.708,596.996,space,28.262,,596.997,597.428,y,0.425,,0,15,15,5,1,"observe object 1, observe object 2, observe object 3, observe object 4, observe object 5, observe object 6, observe object 7, observe object 8, if location of object 7 equal location of object 2 or location of object 8 equal location of object 4 , then location of object 3 equal location of object 1 , else location of object 6 equal location of object 5 ?",true,./for_xx/trial6/frames/epoch0.png,./for_xx/trial6/frames/epoch1.png,./for_xx/trial6/frames/epoch2.png,./for_xx/trial6/frames/epoch3.png,./for_xx/trial6/frames/epoch4.png,./for_xx/trial6/frames/epoch5.png,./for_xx/trial6/frames/epoch6.png,./for_xx/trial6/frames/epoch7.png
,,,,,204822,001,2024-02-14_15h09.37.552,iwisdm_med_pcy,2023.2.3,MacIntel,62.5,597.428,598.983,space,1.542,,598.983,620.193,space,21.175,,620.193,620.421,y,0.219,,0,16,16,47,1,"observe object 1, observe object 2, observe object 3, observe object 4, observe object 5, observe object 6, if category of object 5 equal category of object 1 , then category of object 6 equal cars and category of object 4 equal category of object 2 , else category of object 3 not equal chairs ?",true,./for_xx/trial108/frames/epoch0.png,./for_xx/trial108/frames/epoch1.png,./for_xx/trial108/frames/epoch2.png,./for_xx/trial108/frames/epoch3.png,./for_xx/trial108/frames/epoch4.png,./for_xx/trial108/frames/epoch5.png,./for_xx/nullframe.png,./for_xx/nullframe.png
,,,,,204822,001,2024-02-14_15h09.37.552,iwisdm_med_pcy,2023.2.3,MacIntel,62.5,620.422,620.912,space,0.47,,620.912,663.506,space,42.571,,663.507,664.292,y,0.782,,0,17,17,48,1,"observe object 1, observe object 2, observe object 3, observe object 4, observe object 5, observe object 6, observe object 7, observe object 8, if location of object 3 equal location of object 5 and object of object 2 not equal object of object 7 , then object of object 1 not equal object of object 4 , else object of object 8 equal object of object 6 ?",true,./for_xx/trial305/frames/epoch0.png,./for_xx/trial305/frames/epoch1.png,./for_xx/trial305/frames/epoch2.png,./for_xx/trial305/frames/epoch3.png,./for_xx/trial305/frames/epoch4.png,./for_xx/trial305/frames/epoch5.png,./for_xx/trial305/frames/epoch6.png,./for_xx/trial305/frames/epoch7.png
,,,,,204822,001,2024-02-14_15h09.37.552,iwisdm_med_pcy,2023.2.3,MacIntel,62.5,664.294,664.815,space,0.506,,664.815,691.735,space,26.883,,691.736,691.968,n,0.224,,0,18,18,33,1,"observe object 1, observe object 2, observe object 3, observe object 4, observe object 5, observe object 6, observe object 7, observe object 8, if object of object 2 equal object of object 8 , then object of object 5 equal object of object 6 and object of object 3 equal object of object 4 , else object of object 1 equal object of object 7 ?",false,./for_xx/trial208/frames/epoch0.png,./for_xx/trial208/frames/epoch1.png,./for_xx/trial208/frames/epoch2.png,./for_xx/trial208/frames/epoch3.png,./for_xx/trial208/frames/epoch4.png,./for_xx/trial208/frames/epoch5.png,./for_xx/trial208/frames/epoch6.png,./for_xx/trial208/frames/epoch7.png
,,,,,204822,001,2024-02-14_15h09.37.552,iwisdm_med_pcy,2023.2.3,MacIntel,62.5,691.968,692.321,space,0.33,,692.321,715.563,space,23.214,,715.563,715.769,y,0.197,,0,19,19,20,1,"observe object 1, observe object 2, observe object 3, observe object 4, observe object 5, observe object 6, observe object 7, if location of object 5 equal location of object 6 and object of object 3 equal object of object 2 , then category of object 7 equal couches , else object of object 1 not equal object of object 4 ?",true,./for_xx/trial308/frames/epoch0.png,./for_xx/trial308/frames/epoch1.png,./for_xx/trial308/frames/epoch2.png,./for_xx/trial308/frames/epoch3.png,./for_xx/trial308/frames/epoch4.png,./for_xx/trial308/frames/epoch5.png,./for_xx/trial308/frames/epoch6.png,./for_xx/nullframe.png
,,,,,204822,001,2024-02-14_15h09.37.552,iwisdm_med_pcy,2023.2.3,MacIntel,62.5,715.77,716.325,space,0.531,,716.325,753.494,space,37.144,,753.494,753.859,n,0.349,,0,20,20,35,1,"observe object 1, observe object 2, observe object 3, observe object 4, delay, observe object 5, observe object 6, observe object 7, if category of object 2 not equal benches , then category of object 1 equal category of object 6 , else object of object 3 equal object of object 5 and location of object 4 not equal location of object 7 ?",false,./for_xx/trial311/frames/epoch0.png,./for_xx/trial311/frames/epoch1.png,./for_xx/trial311/frames/epoch2.png,./for_xx/trial311/frames/epoch3.png,./for_xx/trial311/frames/epoch4.png,./for_xx/trial311/frames/epoch5.png,./for_xx/trial311/frames/epoch6.png,./for_xx/trial311/frames/epoch7.png
,,,,,204822,001,2024-02-14_15h09.37.552,iwisdm_med_pcy,2023.2.3,MacIntel,62.5,753.861,755.254,space,1.368,,755.254,784.009,space,28.732,,784.01,784.276,n,0.261,,0,21,21,0,1,"observe object 1, observe object 2, observe object 3, observe object 4, observe object 5, observe object 6, observe object 7, observe object 8, if location of object 1 not equal location of object 8 or location of object 2 equal location of object 6 , then location of object 5 not equal location of object 7 , else location of object 3 equal location of object 4 ?",false,./for_xx/trial9/frames/epoch0.png,./for_xx/trial9/frames/epoch1.png,./for_xx/trial9/frames/epoch2.png,./for_xx/trial9/frames/epoch3.png,./for_xx/trial9/frames/epoch4.png,./for_xx/trial9/frames/epoch5.png,./for_xx/trial9/frames/epoch6.png,./for_xx/trial9/frames/epoch7.png
,,,,,204822,001,2024-02-14_15h09.37.552,iwisdm_med_pcy,2023.2.3,MacIntel,62.5,784.277,784.735,space,0.44,,784.735,815.494,space,30.737,,815.494,816.003,n,0.501,,0,22,22,40,1,"observe object 1, observe object 2, observe object 3, observe object 4, observe object 5, observe object 6, observe object 7, observe object 8, if location of object 1 not equal location of object 4 and location of object 8 not equal location of object 3 , then category of object 7 not equal category of object 6 , else object of object 2 not equal object of object 5 ?",false,./for_xx/trial303/frames/epoch0.png,./for_xx/trial303/frames/epoch1.png,./for_xx/trial303/frames/epoch2.png,./for_xx/trial303/frames/epoch3.png,./for_xx/trial303/frames/epoch4.png,./for_xx/trial303/frames/epoch5.png,./for_xx/trial303/frames/epoch6.png,./for_xx/trial303/frames/epoch7.png
,,,,,204822,001,2024-02-14_15h09.37.552,iwisdm_med_pcy,2023.2.3,MacIntel,62.5,816.004,816.87,space,0.847,,816.87,859.849,space,42.952,,859.849,860.277,n,0.414,,0,23,23,45,1,"observe object 1, delay, observe object 2, observe object 3, observe object 4, observe object 5, observe object 6, if category of object 2 equal benches , then category of object 5 equal category of object 4 , else category of object 6 not equal category of object 1 or category of object 3 equal chairs ?",false,./for_xx/trial106/frames/epoch0.png,./for_xx/trial106/frames/epoch1.png,./for_xx/trial106/frames/epoch2.png,./for_xx/trial106/frames/epoch3.png,./for_xx/trial106/frames/epoch4.png,./for_xx/trial106/frames/epoch5.png,./for_xx/trial106/frames/epoch6.png,./for_xx/nullframe.png
,,,,,204822,001,2024-02-14_15h09.37.552,iwisdm_med_pcy,2023.2.3,MacIntel,62.5,860.279,864.289,space,3.994,,864.29,893.283,space,28.969,,893.283,893.569,n,0.278,,0,24,24,6,1,"observe object 1, observe object 2, observe object 3, observe object 4, observe object 5, observe object 6, observe object 7, observe object 8, if object of object 8 equal object of object 2 or object of object 4 not equal object of object 1 , then object of object 3 equal object of object 6 , else object of object 5 not equal object of object 7 ?",false,./for_xx/trial202/frames/epoch0.png,./for_xx/trial202/frames/epoch1.png,./for_xx/trial202/frames/epoch2.png,./for_xx/trial202/frames/epoch3.png,./for_xx/trial202/frames/epoch4.png,./for_xx/trial202/frames/epoch5.png,./for_xx/trial202/frames/epoch6.png,./for_xx/trial202/frames/epoch7.png
,,,,,204822,001,2024-02-14_15h09.37.552,iwisdm_med_pcy,2023.2.3,MacIntel,62.5,893.571,895.897,space,2.31,,895.898,917.395,space,21.475,,917.395,917.614,y,0.21,,0,25,25,34,1,"observe object 1, delay, observe object 2, observe object 3, observe object 4, delay, observe object 5, if category of object 3 equal cars , then category of object 4 equal tables or location of object 5 not equal location of object 2 , else location of object 1 equal top left ?",true,./for_xx/trial318/frames/epoch0.png,./for_xx/trial318/frames/epoch1.png,./for_xx/trial318/frames/epoch2.png,./for_xx/trial318/frames/epoch3.png,./for_xx/trial318/frames/epoch4.png,./for_xx/trial318/frames/epoch5.png,./for_xx/trial318/frames/epoch6.png,./for_xx/nullframe.png
,,,,,204822,001,2024-02-14_15h09.37.552,iwisdm_med_pcy,2023.2.3,MacIntel,62.5,917.614,917.959,space,0.328,,917.96,956.502,space,38.512,,956.503,956.771,y,0.255,,0,26,26,16,1,"observe object 1, observe object 2, delay, observe object 3, observe object 4, observe object 5, observe object 6, if category of object 6 not equal category of object 5 and location of object 3 equal bottom right , then object of object 1 equal object of object 2 , else location of object 4 equal top left ?",true,./for_xx/trial309/frames/epoch0.png,./for_xx/trial309/frames/epoch1.png,./for_xx/trial309/frames/epoch2.png,./for_xx/trial309/frames/epoch3.png,./for_xx/trial309/frames/epoch4.png,./for_xx/trial309/frames/epoch5.png,./for_xx/trial309/frames/epoch6.png,./for_xx/trial309/frames/epoch7.png
,,,,,204822,001,2024-02-14_15h09.37.552,iwisdm_med_pcy,2023.2.3,MacIntel,62.5,956.774,957.212,space,0.404,,957.212,983.833,space,26.586,,983.833,984.084,n,0.245,,0,27,27,41,1,"observe object 1, delay, observe object 2, observe object 3, observe object 4, observe object 5, observe object 6, observe object 7, if category of object 3 not equal planes , then category of object 2 equal category of object 5 and category of object 7 not equal category of object 4 , else category of object 6 equal category of object 1 ?",false,./for_xx/trial109/frames/epoch0.png,./for_xx/trial109/frames/epoch1.png,./for_xx/trial109/frames/epoch2.png,./for_xx/trial109/frames/epoch3.png,./for_xx/trial109/frames/epoch4.png,./for_xx/trial109/frames/epoch5.png,./for_xx/trial109/frames/epoch6.png,./for_xx/trial109/frames/epoch7.png
,,,,,204822,001,2024-02-14_15h09.37.552,iwisdm_med_pcy,2023.2.3,MacIntel,62.5,984.085,984.576,space,0.465,,984.576,1017.607,space,33.002,,1017.607,1017.903,n,0.28,,0,28,28,43,1,"observe object 1, observe object 2, observe object 3, observe object 4, observe object 5, observe object 6, if category of object 1 not equal benches and category of object 2 not equal category of object 4 , then category of object 3 equal tables , else category of object 6 equal category of object 5 ?",false,./for_xx/trial100/frames/epoch0.png,./for_xx/trial100/frames/epoch1.png,./for_xx/trial100/frames/epoch2.png,./for_xx/trial100/frames/epoch3.png,./for_xx/trial100/frames/epoch4.png,./for_xx/trial100/frames/epoch5.png,./for_xx/nullframe.png,./for_xx/nullframe.png
,,,,,204822,001,2024-02-14_15h09.37.552,iwisdm_med_pcy,2023.2.3,MacIntel,62.5,1017.905,1019.811,space,1.878,,1019.811,1049.423,space,29.57,,1049.424,1049.611,n,0.179,,0,29,29,4,1,"observe object 1, observe object 2, observe object 3, observe object 4, observe object 5, observe object 6, observe object 7, observe object 8, if object of object 4 not equal object of object 2 and object of object 5 not equal object of object 8 , then object of object 7 equal object of object 6 , else object of object 1 not equal object of object 3 ?",false,./for_xx/trial203/frames/epoch0.png,./for_xx/trial203/frames/epoch1.png,./for_xx/trial203/frames/epoch2.png,./for_xx/trial203/frames/epoch3.png,./for_xx/trial203/frames/epoch4.png,./for_xx/trial203/frames/epoch5.png,./for_xx/trial203/frames/epoch6.png,./for_xx/trial203/frames/epoch7.png
,,,,,204822,001,2024-02-14_15h09.37.552,iwisdm_med_pcy,2023.2.3,MacIntel,62.5,1049.611,1050.107,space,0.481,,1050.107,1082.253,space,32.123,,1082.253,1082.487,y,0.224,,0,30,30,17,1,"observe object 1, observe object 2, observe object 3, delay, observe object 4, observe object 5, observe object 6, observe object 7, if category of object 6 not equal category of object 7 or category of object 2 equal tables , then category of object 5 not equal category of object 4 , else category of object 1 not equal category of object 3 ?",true,./for_xx/trial104/frames/epoch0.png,./for_xx/trial104/frames/epoch1.png,./for_xx/trial104/frames/epoch2.png,./for_xx/trial104/frames/epoch3.png,./for_xx/trial104/frames/epoch4.png,./for_xx/trial104/frames/epoch5.png,./for_xx/trial104/frames/epoch6.png,./for_xx/trial104/frames/epoch7.png
,,,,,204822,001,2024-02-14_15h09.37.552,iwisdm_med_pcy,2023.2.3,MacIntel,62.5,1082.488,1082.802,space,0.29,,1082.802,1104.466,space,21.632,,1104.466,1104.613,y,0.136,,0,31,31,7,1,"observe object 1, observe object 2, observe object 3, observe object 4, observe object 5, observe object 6, observe object 7, observe object 8, if object of object 3 equal object of object 2 and object of object 4 not equal object of object 6 , then object of object 7 not equal object of object 8 , else object of object 5 not equal object of object 1 ?",false,./for_xx/trial205/frames/epoch0.png,./for_xx/trial205/frames/epoch1.png,./for_xx/trial205/frames/epoch2.png,./for_xx/trial205/frames/epoch3.png,./for_xx/trial205/frames/epoch4.png,./for_xx/trial205/frames/epoch5.png,./for_xx/trial205/frames/epoch6.png,./for_xx/trial205/frames/epoch7.png
,,,,,204822,001,2024-02-14_15h09.37.552,iwisdm_med_pcy,2023.2.3,MacIntel,62.5,1104.613,1105.157,space,0.521,,1105.157,1127.414,space,22.235,,1127.415,1127.582,y,0.154,,0,32,32,42,1,"observe object 1, observe object 2, observe object 3, observe object 4, observe object 5, observe object 6, observe object 7, observe object 8, if category of object 4 not equal category of object 2 and object of object 5 not equal object of object 6 , then object of object 3 not equal object of object 1 , else object of object 8 not equal object of object 7 ?",true,./for_xx/trial304/frames/epoch0.png,./for_xx/trial304/frames/epoch1.png,./for_xx/trial304/frames/epoch2.png,./for_xx/trial304/frames/epoch3.png,./for_xx/trial304/frames/epoch4.png,./for_xx/trial304/frames/epoch5.png,./for_xx/trial304/frames/epoch6.png,./for_xx/trial304/frames/epoch7.png
,,,,,204822,001,2024-02-14_15h09.37.552,iwisdm_med_pcy,2023.2.3,MacIntel,62.5,1127.585,1150.724,space,23.124,,1150.724,1173.999,space,23.252,,1173.999,1174.314,n,0.31,,0,33,33,22,1,"observe object 1, observe object 2, observe object 3, observe object 4, observe object 5, delay, observe object 6, observe object 7, if category of object 3 equal category of object 2 , then object of object 1 not equal object of object 5 , else category of object 7 equal couches and object of object 4 not equal object of object 6 ?",false,./for_xx/trial301/frames/epoch0.png,./for_xx/trial301/frames/epoch1.png,./for_xx/trial301/frames/epoch2.png,./for_xx/trial301/frames/epoch3.png,./for_xx/trial301/frames/epoch4.png,./for_xx/trial301/frames/epoch5.png,./for_xx/trial301/frames/epoch6.png,./for_xx/trial301/frames/epoch7.png
,,,,,204822,001,2024-02-14_15h09.37.552,iwisdm_med_pcy,2023.2.3,MacIntel,62.5,1174.315,1174.908,space,0.575,,1174.909,1218.406,space,43.477,,1218.406,1218.687,n,0.273,,0,34,34,27,1,"observe object 1, observe object 2, observe object 3, observe object 4, observe object 5, observe object 6, observe object 7, observe object 8, if object of object 8 not equal object of object 1 , then object of object 6 not equal object of object 2 , else object of object 3 equal object of object 5 and object of object 4 not equal object of object 7 ?",false,./for_xx/trial207/frames/epoch0.png,./for_xx/trial207/frames/epoch1.png,./for_xx/trial207/frames/epoch2.png,./for_xx/trial207/frames/epoch3.png,./for_xx/trial207/frames/epoch4.png,./for_xx/trial207/frames/epoch5.png,./for_xx/trial207/frames/epoch6.png,./for_xx/trial207/frames/epoch7.png
,,,,,204822,001,2024-02-14_15h09.37.552,iwisdm_med_pcy,2023.2.3,MacIntel,62.5,1218.688,1219.371,space,0.663,,1219.371,1238.322,space,18.921,,1238.322,1238.617,n,0.281,,0,35,35,37,1,"observe object 1, observe object 2, observe object 3, observe object 4, observe object 5, delay, observe object 6, observe object 7, if location of object 5 not equal location of object 3 , then location of object 1 not equal top left or object of object 4 not equal object of object 2 , else location of object 6 equal location of object 7 ?",false,./for_xx/trial317/frames/epoch0.png,./for_xx/trial317/frames/epoch1.png,./for_xx/trial317/frames/epoch2.png,./for_xx/trial317/frames/epoch3.png,./for_xx/trial317/frames/epoch4.png,./for_xx/trial317/frames/epoch5.png,./for_xx/trial317/frames/epoch6.png,./for_xx/trial317/frames/epoch7.png
,,,,,204822,001,2024-02-14_15h09.37.552,iwisdm_med_pcy,2023.2.3,MacIntel,62.5,1238.619,1295.979,space,57.337,,1295.98,1318.071,space,22.068,,1318.072,1319.043,n,0.957,,0,36,36,28,1,"observe object 1, delay, observe object 2, observe object 3, observe object 4, observe object 5, observe object 6, observe object 7, if location of object 7 equal top right , then location of object 3 equal location of object 5 and location of object 4 equal location of object 2 , else location of object 1 not equal location of object 6 ?",false,./for_xx/trial3/frames/epoch0.png,./for_xx/trial3/frames/epoch1.png,./for_xx/trial3/frames/epoch2.png,./for_xx/trial3/frames/epoch3.png,./for_xx/trial3/frames/epoch4.png,./for_xx/trial3/frames/epoch5.png,./for_xx/trial3/frames/epoch6.png,./for_xx/trial3/frames/epoch7.png
,,,,,204822,001,2024-02-14_15h09.37.552,iwisdm_med_pcy,2023.2.3,MacIntel,62.5,1319.044,1320.749,space,1.688,,1320.749,1334.707,space,13.925,,1334.707,1335.101,n,0.386,,0,37,37,39,1,"observe object 1, observe object 2, observe object 3, delay, observe object 4, observe object 5, observe object 6, observe object 7, if object of object 6 not equal object of object 4 , then location of object 5 equal bottom right , else object of object 7 not equal object of object 3 and category of object 1 not equal category of object 2 ?",false,./for_xx/trial319/frames/epoch0.png,./for_xx/trial319/frames/epoch1.png,./for_xx/trial319/frames/epoch2.png,./for_xx/trial319/frames/epoch3.png,./for_xx/trial319/frames/epoch4.png,./for_xx/trial319/frames/epoch5.png,./for_xx/trial319/frames/epoch6.png,./for_xx/trial319/frames/epoch7.png
,,,,,204822,001,2024-02-14_15h09.37.552,iwisdm_med_pcy,2023.2.3,MacIntel,62.5,1335.103,1336.294,space,1.165,,1336.294,1354.256,space,17.934,,1354.256,1354.65,y,0.388,,0,38,38,32,1,"observe object 1, observe object 2, observe object 3, observe object 4, observe object 5, observe object 6, observe object 7, observe object 8, if object of object 5 not equal object of object 1 , then object of object 4 equal object of object 6 or object of object 3 equal object of object 8 , else object of object 2 not equal object of object 7 ?",true,./for_xx/trial201/frames/epoch0.png,./for_xx/trial201/frames/epoch1.png,./for_xx/trial201/frames/epoch2.png,./for_xx/trial201/frames/epoch3.png,./for_xx/trial201/frames/epoch4.png,./for_xx/trial201/frames/epoch5.png,./for_xx/trial201/frames/epoch6.png,./for_xx/trial201/frames/epoch7.png
,,,,,204822,001,2024-02-14_15h09.37.552,iwisdm_med_pcy,2023.2.3,MacIntel,62.5,1354.651,1355.367,space,0.691,,1355.367,1375.049,space,19.653,,1375.049,1375.99,y,0.938,,0,39,39,21,1,"observe object 1, delay, observe object 2, observe object 3, observe object 4, observe object 5, observe object 6, if category of object 5 not equal tables , then category of object 1 equal boats or category of object 3 not equal category of object 2 , else category of object 4 equal category of object 6 ?",true,./for_xx/trial105/frames/epoch0.png,./for_xx/trial105/frames/epoch1.png,./for_xx/trial105/frames/epoch2.png,./for_xx/trial105/frames/epoch3.png,./for_xx/trial105/frames/epoch4.png,./for_xx/trial105/frames/epoch5.png,./for_xx/trial105/frames/epoch6.png,./for_xx/trial105/frames/epoch7.png
,,,,,204822,001,2024-02-14_15h09.37.552,iwisdm_med_pcy,2023.2.3,MacIntel,62.5,1375.991,1399.134,space,23.124,,1399.134,1425.865,space,26.709,,1425.865,1426.279,y,0.397,,0,40,40,12,1,"observe object 1, observe object 2, delay, observe object 3, observe object 4, observe object 5, observe object 6, observe object 7, if location of object 4 equal location of object 3 , then object of object 1 not equal object of object 7 or location of object 2 equal top left , else category of object 6 equal category of object 5 ?",true,./for_xx/trial313/frames/epoch0.png,./for_xx/trial313/frames/epoch1.png,./for_xx/trial313/frames/epoch2.png,./for_xx/trial313/frames/epoch3.png,./for_xx/trial313/frames/epoch4.png,./for_xx/trial313/frames/epoch5.png,./for_xx/trial313/frames/epoch6.png,./for_xx/trial313/frames/epoch7.png
,,,,,204822,001,2024-02-14_15h09.37.552,iwisdm_med_pcy,2023.2.3,MacIntel,62.5,1426.281,1426.738,space,0.437,,1426.738,1455.452,space,28.685,,1455.452,1455.68,n,0.223,,0,41,41,49,1,"observe object 1, delay, observe object 2, observe object 3, observe object 4, delay, observe object 5, if location of object 2 equal bottom left , then location of object 5 not equal top left or category of object 3 not equal benches , else location of object 1 not equal location of object 4 ?",false,./for_xx/trial302/frames/epoch0.png,./for_xx/trial302/frames/epoch1.png,./for_xx/trial302/frames/epoch2.png,./for_xx/trial302/frames/epoch3.png,./for_xx/trial302/frames/epoch4.png,./for_xx/trial302/frames/epoch5.png,./for_xx/trial302/frames/epoch6.png,./for_xx/nullframe.png
,,,,,204822,001,2024-02-14_15h09.37.552,iwisdm_med_pcy,2023.2.3,MacIntel,62.5,1455.681,1456.442,space,0.742,,1456.442,1513.232,space,56.76,,1513.232,1513.728,n,0.492,,0,42,42,3,1,"observe object 1, observe object 2, observe object 3, observe object 4, delay, observe object 5, observe object 6, observe object 7, if location of object 6 not equal location of object 7 , then location of object 5 equal top right , else location of object 2 not equal location of object 3 or location of object 1 equal location of object 4 ?",false,./for_xx/trial7/frames/epoch0.png,./for_xx/trial7/frames/epoch1.png,./for_xx/trial7/frames/epoch2.png,./for_xx/trial7/frames/epoch3.png,./for_xx/trial7/frames/epoch4.png,./for_xx/trial7/frames/epoch5.png,./for_xx/trial7/frames/epoch6.png,./for_xx/trial7/frames/epoch7.png
,,,,,204822,001,2024-02-14_15h09.37.552,iwisdm_med_pcy,2023.2.3,MacIntel,62.5,1513.728,1515.75,space,1.998,,1515.75,1573.303,space,57.523,,1573.303,1573.667,y,0.359,,0,43,43,46,1,"observe object 1, delay, observe object 2, observe object 3, observe object 4, observe object 5, observe object 6, observe object 7, if category of object 3 not equal lighting or category of object 7 not equal category of object 6 , then category of object 1 equal category of object 2 , else category of object 4 equal category of object 5 ?",true,./for_xx/trial101/frames/epoch0.png,./for_xx/trial101/frames/epoch1.png,./for_xx/trial101/frames/epoch2.png,./for_xx/trial101/frames/epoch3.png,./for_xx/trial101/frames/epoch4.png,./for_xx/trial101/frames/epoch5.png,./for_xx/trial101/frames/epoch6.png,./for_xx/trial101/frames/epoch7.png
,,,,,204822,001,2024-02-14_15h09.37.552,iwisdm_med_pcy,2023.2.3,MacIntel,62.5,1573.668,1574.723,space,1.038,,1574.723,1598.9,space,24.155,,1598.9,1599.357,n,0.453,,0,44,44,2,1,"observe object 1, delay, observe object 2, observe object 3, observe object 4, observe object 5, if location of object 3 not equal top right or location of object 2 equal top left , then location of object 1 equal top left , else location of object 4 not equal location of object 5 ?",false,./for_xx/trial0/frames/epoch0.png,./for_xx/trial0/frames/epoch1.png,./for_xx/trial0/frames/epoch2.png,./for_xx/trial0/frames/epoch3.png,./for_xx/trial0/frames/epoch4.png,./for_xx/trial0/frames/epoch5.png,./for_xx/nullframe.png,./for_xx/nullframe.png
,,,,,204822,001,2024-02-14_15h09.37.552,iwisdm_med_pcy,2023.2.3,MacIntel,62.5,1599.358,1600.634,space,1.252,,1600.635,1618.519,space,17.851,,1618.519,1618.833,n,0.308,,0,45,45,19,1,"observe object 1, delay, observe object 2, observe object 3, observe object 4, observe object 5, observe object 6, if category of object 3 not equal boats , then category of object 6 not equal category of object 5 , else category of object 4 equal category of object 1 and category of object 2 not equal tables ?",false,./for_xx/trial102/frames/epoch0.png,./for_xx/trial102/frames/epoch1.png,./for_xx/trial102/frames/epoch2.png,./for_xx/trial102/frames/epoch3.png,./for_xx/trial102/frames/epoch4.png,./for_xx/trial102/frames/epoch5.png,./for_xx/trial102/frames/epoch6.png,./for_xx/nullframe.png
,,,,,204822,001,2024-02-14_15h09.37.552,iwisdm_med_pcy,2023.2.3,MacIntel,62.5,1618.834,1619.391,space,0.532,,1619.391,1636.404,space,16.989,,1636.404,1636.661,y,0.243,,0,46,46,25,1,"observe object 1, delay, observe object 2, observe object 3, observe object 4, observe object 5, observe object 6, if location of object 1 equal location of object 4 , then location of object 5 not equal bottom left , else location of object 6 equal location of object 3 or location of object 2 equal top left ?",true,./for_xx/trial4/frames/epoch0.png,./for_xx/trial4/frames/epoch1.png,./for_xx/trial4/frames/epoch2.png,./for_xx/trial4/frames/epoch3.png,./for_xx/trial4/frames/epoch4.png,./for_xx/trial4/frames/epoch5.png,./for_xx/trial4/frames/epoch6.png,./for_xx/nullframe.png
,,,,,204822,001,2024-02-14_15h09.37.552,iwisdm_med_pcy,2023.2.3,MacIntel,62.5,1636.662,1637.144,space,0.456,,1637.144,1653.573,space,16.406,,1653.573,1653.83,n,0.245,,0,47,47,18,1,"observe object 1, delay, observe object 2, observe object 3, observe object 4, observe object 5, observe object 6, observe object 7, if category of object 6 not equal category of object 3 , then category of object 7 equal category of object 2 and category of object 1 not equal couches , else category of object 4 equal category of object 5 ?",false,./for_xx/trial103/frames/epoch0.png,./for_xx/trial103/frames/epoch1.png,./for_xx/trial103/frames/epoch2.png,./for_xx/trial103/frames/epoch3.png,./for_xx/trial103/frames/epoch4.png,./for_xx/trial103/frames/epoch5.png,./for_xx/trial103/frames/epoch6.png,./for_xx/trial103/frames/epoch7.png
,,,,,204822,001,2024-02-14_15h09.37.552,iwisdm_med_pcy,2023.2.3,MacIntel,62.5,1653.832,1654.42,space,0.557,,1654.421,1678.322,space,23.868,,1678.322,1678.516,y,0.189,,0,48,48,29,1,"observe object 1, observe object 2, observe object 3, observe object 4, observe object 5, observe object 6, observe object 7, observe object 8, if object of object 8 not equal object of object 1 , then object of object 3 not equal object of object 5 and object of object 4 not equal object of object 7 , else object of object 2 equal object of object 6 ?",true,./for_xx/trial206/frames/epoch0.png,./for_xx/trial206/frames/epoch1.png,./for_xx/trial206/frames/epoch2.png,./for_xx/trial206/frames/epoch3.png,./for_xx/trial206/frames/epoch4.png,./for_xx/trial206/frames/epoch5.png,./for_xx/trial206/frames/epoch6.png,./for_xx/trial206/frames/epoch7.png
,,,,,204822,001,2024-02-14_15h09.37.552,iwisdm_med_pcy,2023.2.3,MacIntel,62.5,1678.517,1679.037,space,0.495,,1679.037,1702.669,space,23.61,,1702.669,1703.124,n,0.451,,0,49,49,26,1,"observe object 1, observe object 2, observe object 3, observe object 4, observe object 5, observe object 6, observe object 7, observe object 8, if object of object 7 equal object of object 1 , then object of object 3 not equal object of object 5 or object of object 4 equal object of object 8 , else object of object 6 not equal object of object 2 ?",false,./for_xx/trial200/frames/epoch0.png,./for_xx/trial200/frames/epoch1.png,./for_xx/trial200/frames/epoch2.png,./for_xx/trial200/frames/epoch3.png,./for_xx/trial200/frames/epoch4.png,./for_xx/trial200/frames/epoch5.png,./for_xx/trial200/frames/epoch6.png,./for_xx/trial200/frames/epoch7.png