new_trial.started,new_trial.stopped,key_resp.keys,key_resp.rt,key_resp.duration,participant,session,date,expName,psychopyVersion,OS,frameRate,trial.started,trial.stopped,continue_from_intro.keys,continue_from_intro.rt,continue_from_intro.duration,frame0_2.started,frame0_2.stopped,key_resp_2.keys,key_resp_2.rt,key_resp_2.duration,ending.started,ending.stopped,key_resp_5.keys,key_resp_5.rt,key_resp_5.duration,trials.thisRepN,trials.thisTrialN,trials.thisN,trials.thisIndex,trials.ran,instruction,action,frame0,frame1,frame2,frame3,frame4,frame5,frame6,frame7
0.0004,1.6388,space,1.6181,,mark,001,2024-02-15_01h18.12.629,iwisdm_med_pcy,2023.2.3,MacIntel,59.88023952,,,,,,,,,,,,,,,,,,,,,,,,,,,,,,
,,,,,mark,001,2024-02-15_01h18.12.629,iwisdm_med_pcy,2023.2.3,MacIntel,59.88023952,1.6497,6.123,space,4.4408,,6.1234,55.7217,space,49.5599,,55.7219,56.1373,y,0.395,,0,0,0,21,1,"observe object 1, delay, observe object 2, observe object 3, observe object 4, observe object 5, observe object 6, if category of object 5 not equal tables , then category of object 1 equal boats or category of object 3 not equal category of object 2 , else category of object 4 equal category of object 6 ?",true,./for_xx/trial105/frames/epoch0.png,./for_xx/trial105/frames/epoch1.png,./for_xx/trial105/frames/epoch2.png,./for_xx/trial105/frames/epoch3.png,./for_xx/trial105/frames/epoch4.png,./for_xx/trial105/frames/epoch5.png,./for_xx/trial105/frames/epoch6.png,./for_xx/trial105/frames/epoch7.png
,,,,,mark,001,2024-02-15_01h18.12.629,iwisdm_med_pcy,2023.2.3,MacIntel,59.88023952,56.1516,57.3058,space,1.1328,,57.3059,79.7558,space,22.422,,79.7558,80.0366,n,0.2682,,0,1,1,2,1,"observe object 1, delay, observe object 2, observe object 3, observe object 4, observe object 5, if location of object 3 not equal top right or location of object 2 equal top left , then location of object 1 equal top left , else location of object 4 not equal location of object 5 ?",false,./for_xx/trial0/frames/epoch0.png,./for_xx/trial0/frames/epoch1.png,./for_xx/trial0/frames/epoch2.png,./for_xx/trial0/frames/epoch3.png,./for_xx/trial0/frames/epoch4.png,./for_xx/trial0/frames/epoch5.png,./for_xx/nullframe.png,./for_xx/nullframe.png
,,,,,mark,001,2024-02-15_01h18.12.629,iwisdm_med_pcy,2023.2.3,MacIntel,59.88023952,80.0506,80.3224,space,0.2522,,80.3224,121.6879,space,41.3419,,121.688,121.9202,n,0.2266,,0,2,2,33,1,"observe object 1, observe object 2, observe object 3, observe object 4, observe object 5, observe object 6, observe object 7, observe object 8, if object of object 2 equal object of object 8 , then object of object 5 equal object of object 6 and object of object 3 equal object of object 4 , else object of object 1 equal object of object 7 ?",false,./for_xx/trial208/frames/epoch0.png,./for_xx/trial208/frames/epoch1.png,./for_xx/trial208/frames/epoch2.png,./for_xx/trial208/frames/epoch3.png,./for_xx/trial208/frames/epoch4.png,./for_xx/trial208/frames/epoch5.png,./for_xx/trial208/frames/epoch6.png,./for_xx/trial208/frames/epoch7.png
,,,,,mark,001,2024-02-15_01h18.12.629,iwisdm_med_pcy,2023.2.3,MacIntel,59.88023952,121.9347,122.0712,space,0.126,,122.0712,184.0558,space,61.9508,,184.0559,184.3216,y,0.2469,,0,3,3,1,1,"observe object 1, observe object 2, observe object 3, observe object 4, observe object 5, observe object 6, observe object 7, observe object 8, if object of object 5 equal object of object 6 , then object of object 7 equal object of object 4 or object of object 8 not equal object of object 3 , else object of object 1 not equal object of object 2 ?",true,./for_xx/trial204/frames/epoch0.png,./for_xx/trial204/frames/epoch1.png,./for_xx/trial204/frames/epoch2.png,./for_xx/trial204/frames/epoch3.png,./for_xx/trial204/frames/epoch4.png,./for_xx/trial204/frames/epoch5.png,./for_xx/trial204/frames/epoch6.png,./for_xx/trial204/frames/epoch7.png
,,,,,mark,001,2024-02-15_01h18.12.629,iwisdm_med_pcy,2023.2.3,MacIntel,59.88023952,184.3371,184.5048,space,0.1541,,184.5049,199.9699,space,15.4337,,199.97,200.3188,y,0.3433,,0,4,4,23,1,"observe object 1, delay, observe object 2, observe object 3, observe object 4, observe object 5, observe object 6, if object of object 3 equal object of object 4 , then location of object 1 equal bottom left or location of object 2 equal location of object 5 , else category of object 6 not equal couches ?",true,./for_xx/trial306/frames/epoch0.png,./for_xx/trial306/frames/epoch1.png,./for_xx/trial306/frames/epoch2.png,./for_xx/trial306/frames/epoch3.png,./for_xx/trial306/frames/epoch4.png,./for_xx/trial306/frames/epoch5.png,./for_xx/trial306/frames/epoch6.png,./for_xx/trial306/frames/epoch7.png
,,,,,mark,001,2024-02-15_01h18.12.629,iwisdm_med_pcy,2023.2.3,MacIntel,59.88023952,200.3325,200.4356,space,0.085,,200.4356,227.6216,space,27.1548,,227.6217,228.1849,y,0.5487,,0,5,5,13,1,"observe object 1, observe object 2, observe object 3, delay, observe object 4, delay, observe object 5, observe object 6, if category of object 6 equal benches and location of object 3 not equal top left , then location of object 2 not equal location of object 1 , else category of object 4 not equal category of object 5 ?",true,./for_xx/trial314/frames/epoch0.png,./for_xx/trial314/frames/epoch1.png,./for_xx/trial314/frames/epoch2.png,./for_xx/trial314/frames/epoch3.png,./for_xx/trial314/frames/epoch4.png,./for_xx/trial314/frames/epoch5.png,./for_xx/trial314/frames/epoch6.png,./for_xx/trial314/frames/epoch7.png
,,,,,mark,001,2024-02-15_01h18.12.629,iwisdm_med_pcy,2023.2.3,MacIntel,59.88023952,228.2005,228.2686,space,0.057,,228.2687,866.6276,space,638.3319,,866.6277,866.8588,n,0.2216,,0,6,6,7,1,"observe object 1, observe object 2, observe object 3, observe object 4, observe object 5, observe object 6, observe object 7, observe object 8, if object of object 3 equal object of object 2 and object of object 4 not equal object of object 6 , then object of object 7 not equal object of object 8 , else object of object 5 not equal object of object 1 ?",false,./for_xx/trial205/frames/epoch0.png,./for_xx/trial205/frames/epoch1.png,./for_xx/trial205/frames/epoch2.png,./for_xx/trial205/frames/epoch3.png,./for_xx/trial205/frames/epoch4.png,./for_xx/trial205/frames/epoch5.png,./for_xx/trial205/frames/epoch6.png,./for_xx/trial205/frames/epoch7.png
,,,,,mark,001,2024-02-15_01h18.12.629,iwisdm_med_pcy,2023.2.3,MacIntel,59.88023952,866.8673,866.9945,space,0.1083,,866.9946,881.5769,space,14.5394,,881.577,882.0262,y,0.4428,,0,7,7,32,1,"observe object 1, observe object 2, observe object 3, observe object 4, observe object 5, observe object 6, observe object 7, observe object 8, if object of object 5 not equal object of object 1 , then object of object 4 equal object of object 6 or object of object 3 equal object of object 8 , else object of object 2 not equal object of object 7 ?",true,./for_xx/trial201/frames/epoch0.png,./for_xx/trial201/frames/epoch1.png,./for_xx/trial201/frames/epoch2.png,./for_xx/trial201/frames/epoch3.png,./for_xx/trial201/frames/epoch4.png,./for_xx/trial201/frames/epoch5.png,./for_xx/trial201/frames/epoch6.png,./for_xx/trial201/frames/epoch7.png
,,,,,mark,001,2024-02-15_01h18.12.629,iwisdm_med_pcy,2023.2.3,MacIntel,59.88023952,882.0411,882.2435,space,0.1857,,882.2435,914.8608,space,32.5827,,914.8609,915.2775,n,0.3985,,0,8,8,31,1,"observe object 1, observe object 2, observe object 3, observe object 4, observe object 5, observe object 6, observe object 7, if location of object 1 equal location of object 5 or location of object 3 equal bottom right , then location of object 7 not equal location of object 6 , else location of object 2 not equal location of object 4 ?",false,./for_xx/trial5/frames/epoch0.png,./for_xx/trial5/frames/epoch1.png,./for_xx/trial5/frames/epoch2.png,./for_xx/trial5/frames/epoch3.png,./for_xx/trial5/frames/epoch4.png,./for_xx/trial5/frames/epoch5.png,./for_xx/trial5/frames/epoch6.png,./for_xx/nullframe.png
,,,,,mark,001,2024-02-15_01h18.12.629,iwisdm_med_pcy,2023.2.3,MacIntel,59.88023952,915.2933,915.6438,space,0.328,,915.6438,952.4928,space,36.8186,,952.4929,953.1423,n,0.64,,0,9,9,10,1,"observe object 1, observe object 2, observe object 3, observe object 4, observe object 5, observe object 6, observe object 7, observe object 8, if object of object 3 equal object of object 5 , then location of object 2 not equal location of object 1 and category of object 6 not equal category of object 4 , else location of object 8 not equal location of object 7 ?",false,./for_xx/trial315/frames/epoch0.png,./for_xx/trial315/frames/epoch1.png,./for_xx/trial315/frames/epoch2.png,./for_xx/trial315/frames/epoch3.png,./for_xx/trial315/frames/epoch4.png,./for_xx/trial315/frames/epoch5.png,./for_xx/trial315/frames/epoch6.png,./for_xx/trial315/frames/epoch7.png
,,,,,mark,001,2024-02-15_01h18.12.629,iwisdm_med_pcy,2023.2.3,MacIntel,59.88023952,953.1576,953.5766,space,0.3981,,953.5767,971.8263,space,18.2065,,971.8264,972.158,y,0.3156,,0,10,10,46,1,"observe object 1, delay, observe object 2, observe object 3, observe object 4, observe object 5, observe object 6, observe object 7, if category of object 3 not equal lighting or category of object 7 not equal category of object 6 , then category of object 1 equal category of object 2 , else category of object 4 equal category of object 5 ?",true,./for_xx/trial101/frames/epoch0.png,./for_xx/trial101/frames/epoch1.png,./for_xx/trial101/frames/epoch2.png,./for_xx/trial101/frames/epoch3.png,./for_xx/trial101/frames/epoch4.png,./for_xx/trial101/frames/epoch5.png,./for_xx/trial101/frames/epoch6.png,./for_xx/trial101/frames/epoch7.png
,,,,,mark,001,2024-02-15_01h18.12.629,iwisdm_med_pcy,2023.2.3,MacIntel,59.88023952,972.1737,972.3266,space,0.1312,,972.3267,1011.4751,space,39.1098,,1011.4751,1011.8248,y,0.3432,,0,11,11,11,1,"observe object 1, observe object 2, observe object 3, delay, observe object 4, observe object 5, observe object 6, observe object 7, if object of object 7 not equal object of object 3 and location of object 6 not equal location of object 4 , then category of object 1 not equal category of object 2 , else category of object 5 equal benches ?",true,./for_xx/trial312/frames/epoch0.png,./for_xx/trial312/frames/epoch1.png,./for_xx/trial312/frames/epoch2.png,./for_xx/trial312/frames/epoch3.png,./for_xx/trial312/frames/epoch4.png,./for_xx/trial312/frames/epoch5.png,./for_xx/trial312/frames/epoch6.png,./for_xx/trial312/frames/epoch7.png
,,,,,mark,001,2024-02-15_01h18.12.629,iwisdm_med_pcy,2023.2.3,MacIntel,59.88023952,1011.838,1011.9422,space,0.091,,1011.9423,1057.1765,space,45.2034,,1057.1765,1057.4073,n,0.2233,,0,12,12,37,1,"observe object 1, observe object 2, observe object 3, observe object 4, observe object 5, delay, observe object 6, observe object 7, if location of object 5 not equal location of object 3 , then location of object 1 not equal top left or object of object 4 not equal object of object 2 , else location of object 6 equal location of object 7 ?",false,./for_xx/trial317/frames/epoch0.png,./for_xx/trial317/frames/epoch1.png,./for_xx/trial317/frames/epoch2.png,./for_xx/trial317/frames/epoch3.png,./for_xx/trial317/frames/epoch4.png,./for_xx/trial317/frames/epoch5.png,./for_xx/trial317/frames/epoch6.png,./for_xx/trial317/frames/epoch7.png
,,,,,mark,001,2024-02-15_01h18.12.629,iwisdm_med_pcy,2023.2.3,MacIntel,59.88023952,1057.4226,1057.5237,space,0.0914,,1057.5238,1153.5064,space,95.9495,,1153.5065,1153.7236,y,0.1985,,0,13,13,30,1,"observe object 1, observe object 2, observe object 3, observe object 4, observe object 5, delay, observe object 6, if location of object 3 equal location of object 4 , then location of object 1 not equal bottom right and location of object 2 equal location of object 5 , else location of object 6 not equal top left ?",true,./for_xx/trial2/frames/epoch0.png,./for_xx/trial2/frames/epoch1.png,./for_xx/trial2/frames/epoch2.png,./for_xx/trial2/frames/epoch3.png,./for_xx/trial2/frames/epoch4.png,./for_xx/trial2/frames/epoch5.png,./for_xx/trial2/frames/epoch6.png,./for_xx/nullframe.png
,,,,,mark,001,2024-02-15_01h18.12.629,iwisdm_med_pcy,2023.2.3,MacIntel,59.88023952,1153.739,1153.823,space,0.0629,,1153.823,1178.0405,space,24.1937,,1178.0406,1178.3233,n,0.2732,,0,14,14,27,1,"observe object 1, observe object 2, observe object 3, observe object 4, observe object 5, observe object 6, observe object 7, observe object 8, if object of object 8 not equal object of object 1 , then object of object 6 not equal object of object 2 , else object of object 3 equal object of object 5 and object of object 4 not equal object of object 7 ?",false,./for_xx/trial207/frames/epoch0.png,./for_xx/trial207/frames/epoch1.png,./for_xx/trial207/frames/epoch2.png,./for_xx/trial207/frames/epoch3.png,./for_xx/trial207/frames/epoch4.png,./for_xx/trial207/frames/epoch5.png,./for_xx/trial207/frames/epoch6.png,./for_xx/trial207/frames/epoch7.png
,,,,,mark,001,2024-02-15_01h18.12.629,iwisdm_med_pcy,2023.2.3,MacIntel,59.88023952,1178.3387,1178.7395,space,0.3824,,1178.7396,2181.5918,space,1002.827,,2181.5926,2181.8909,y,0.2847,,0,15,15,25,1,"observe object 1, delay, observe object 2, observe object 3, observe object 4, observe object 5, observe object 6, if location of object 1 equal location of object 4 , then location of object 5 not equal bottom left , else location of object 6 equal location of object 3 or location of object 2 equal top left ?",true,./for_xx/trial4/frames/epoch0.png,./for_xx/trial4/frames/epoch1.png,./for_xx/trial4/frames/epoch2.png,./for_xx/trial4/frames/epoch3.png,./for_xx/trial4/frames/epoch4.png,./for_xx/trial4/frames/epoch5.png,./for_xx/trial4/frames/epoch6.png,./for_xx/nullframe.png
,,,,,mark,001,2024-02-15_01h18.12.629,iwisdm_med_pcy,2023.2.3,MacIntel,59.88023952,2181.9079,2182.1449,space,0.2154,,2182.1449,2247.3914,space,65.2165,,2247.3915,2248.0572,n,0.6554,,0,16,16,3,1,"observe object 1, observe object 2, observe object 3, observe object 4, delay, observe object 5, observe object 6, observe object 7, if location of object 6 not equal location of object 7 , then location of object 5 equal top right , else location of object 2 not equal location of object 3 or location of object 1 equal location of object 4 ?",false,./for_xx/trial7/frames/epoch0.png,./for_xx/trial7/frames/epoch1.png,./for_xx/trial7/frames/epoch2.png,./for_xx/trial7/frames/epoch3.png,./for_xx/trial7/frames/epoch4.png,./for_xx/trial7/frames/epoch5.png,./for_xx/trial7/frames/epoch6.png,./for_xx/trial7/frames/epoch7.png
,,,,,mark,001,2024-02-15_01h18.12.629,iwisdm_med_pcy,2023.2.3,MacIntel,59.88023952,2248.0715,2248.6747,space,0.5831,,2248.6747,2368.872,space,120.1666,,2368.872,2369.2066,n,0.3176,,0,17,17,4,1,"observe object 1, observe object 2, observe object 3, observe object 4, observe object 5, observe object 6, observe object 7, observe object 8, if object of object 4 not equal object of object 2 and object of object 5 not equal object of object 8 , then object of object 7 equal object of object 6 , else object of object 1 not equal object of object 3 ?",false,./for_xx/trial203/frames/epoch0.png,./for_xx/trial203/frames/epoch1.png,./for_xx/trial203/frames/epoch2.png,./for_xx/trial203/frames/epoch3.png,./for_xx/trial203/frames/epoch4.png,./for_xx/trial203/frames/epoch5.png,./for_xx/trial203/frames/epoch6.png,./for_xx/trial203/frames/epoch7.png
,,,,,mark,001,2024-02-15_01h18.12.629,iwisdm_med_pcy,2023.2.3,MacIntel,59.88023952,2369.2226,2371.4384,space,2.2029,,2371.4384,2401.6728,space,30.2046,,2401.6728,2402.0908,n,0.4006,,0,18,18,40,1,"observe object 1, observe object 2, observe object 3, observe object 4, observe object 5, observe object 6, observe object 7, observe object 8, if location of object 1 not equal location of object 4 and location of object 8 not equal location of object 3 , then category of object 7 not equal category of object 6 , else object of object 2 not equal object of object 5 ?",false,./for_xx/trial303/frames/epoch0.png,./for_xx/trial303/frames/epoch1.png,./for_xx/trial303/frames/epoch2.png,./for_xx/trial303/frames/epoch3.png,./for_xx/trial303/frames/epoch4.png,./for_xx/trial303/frames/epoch5.png,./for_xx/trial303/frames/epoch6.png,./for_xx/trial303/frames/epoch7.png
,,,,,mark,001,2024-02-15_01h18.12.629,iwisdm_med_pcy,2023.2.3,MacIntel,59.88023952,2402.1041,2404.8241,space,2.7011,,2404.8241,3494.3402,space,1089.4866,,3494.3403,3494.9902,y,0.6346,,0,19,19,12,1,"observe object 1, observe object 2, delay, observe object 3, observe object 4, observe object 5, observe object 6, observe object 7, if location of object 4 equal location of object 3 , then object of object 1 not equal object of object 7 or location of object 2 equal top left , else category of object 6 equal category of object 5 ?",true,./for_xx/trial313/frames/epoch0.png,./for_xx/trial313/frames/epoch1.png,./for_xx/trial313/frames/epoch2.png,./for_xx/trial313/frames/epoch3.png,./for_xx/trial313/frames/epoch4.png,./for_xx/trial313/frames/epoch5.png,./for_xx/trial313/frames/epoch6.png,./for_xx/trial313/frames/epoch7.png
,,,,,mark,001,2024-02-15_01h18.12.629,iwisdm_med_pcy,2023.2.3,MacIntel,59.88023952,3495.0046,3495.5244,space,0.5001,,3495.5244,3521.2899,space,25.7345,,3521.2899,3521.6899,y,0.3845,,0,20,20,49,1,"observe object 1, delay, observe object 2, observe object 3, observe object 4, delay, observe object 5, if location of object 2 equal bottom left , then location of object 5 not equal top left or category of object 3 not equal benches , else location of object 1 not equal location of object 4 ?",false,./for_xx/trial302/frames/epoch0.png,./for_xx/trial302/frames/epoch1.png,./for_xx/trial302/frames/epoch2.png,./for_xx/trial302/frames/epoch3.png,./for_xx/trial302/frames/epoch4.png,./for_xx/trial302/frames/epoch5.png,./for_xx/trial302/frames/epoch6.png,./for_xx/nullframe.png
,,,,,mark,001,2024-02-15_01h18.12.629,iwisdm_med_pcy,2023.2.3,MacIntel,59.88023952,3521.7035,3523.0404,space,1.3205,,3523.0404,5694.2439,space,2171.1692,,5694.244,5694.6437,n,0.3795,,0,21,21,8,1,"observe object 1, observe object 2, observe object 3, observe object 4, observe object 5, observe object 6, observe object 7, if location of object 7 equal location of object 1 , then location of object 5 equal location of object 6 or location of object 3 equal location of object 4 , else location of object 2 equal top right ?",false,./for_xx/trial1/frames/epoch0.png,./for_xx/trial1/frames/epoch1.png,./for_xx/trial1/frames/epoch2.png,./for_xx/trial1/frames/epoch3.png,./for_xx/trial1/frames/epoch4.png,./for_xx/trial1/frames/epoch5.png,./for_xx/trial1/frames/epoch6.png,./for_xx/nullframe.png
,,,,,mark,001,2024-02-15_01h18.12.629,iwisdm_med_pcy,2023.2.3,MacIntel,59.88023952,5694.6606,5695.2448,space,0.5555,,5695.2449,5735.6768,space,40.3914,,5735.6769,5736.2274,y,0.5329,,0,22,22,5,1,"observe object 1, observe object 2, observe object 3, observe object 4, observe object 5, observe object 6, observe object 7, observe object 8, if location of object 7 equal location of object 2 or location of object 8 equal location of object 4 , then location of object 3 equal location of object 1 , else location of object 6 equal location of object 5 ?",true,./for_xx/trial6/frames/epoch0.png,./for_xx/trial6/frames/epoch1.png,./for_xx/trial6/frames/epoch2.png,./for_xx/trial6/frames/epoch3.png,./for_xx/trial6/frames/epoch4.png,./for_xx/trial6/frames/epoch5.png,./for_xx/trial6/frames/epoch6.png,./for_xx/trial6/frames/epoch7.png
,,,,,mark,001,2024-02-15_01h18.12.629,iwisdm_med_pcy,2023.2.3,MacIntel,59.88023952,5736.2417,5736.4941,space,0.2338,,5736.4941,5764.9106,space,28.3775,,5764.9107,5765.2087,n,0.2823,,0,23,23,45,1,"observe object 1, delay, observe object 2, observe object 3, observe object 4, observe object 5, observe object 6, if category of object 2 equal benches , then category of object 5 equal category of object 4 , else category of object 6 not equal category of object 1 or category of object 3 equal chairs ?",false,./for_xx/trial106/frames/epoch0.png,./for_xx/trial106/frames/epoch1.png,./for_xx/trial106/frames/epoch2.png,./for_xx/trial106/frames/epoch3.png,./for_xx/trial106/frames/epoch4.png,./for_xx/trial106/frames/epoch5.png,./for_xx/trial106/frames/epoch6.png,./for_xx/nullframe.png
,,,,,mark,001,2024-02-15_01h18.12.629,iwisdm_med_pcy,2023.2.3,MacIntel,59.88023952,5765.2178,5765.6252,space,0.3942,,5765.6253,5829.4918,space,63.8348,,5829.492,5829.9076,n,0.3973,,0,24,24,35,1,"observe object 1, observe object 2, observe object 3, observe object 4, delay, observe object 5, observe object 6, observe object 7, if category of object 2 not equal benches , then category of object 1 equal category of object 6 , else object of object 3 equal object of object 5 and location of object 4 not equal location of object 7 ?",false,./for_xx/trial311/frames/epoch0.png,./for_xx/trial311/frames/epoch1.png,./for_xx/trial311/frames/epoch2.png,./for_xx/trial311/frames/epoch3.png,./for_xx/trial311/frames/epoch4.png,./for_xx/trial311/frames/epoch5.png,./for_xx/trial311/frames/epoch6.png,./for_xx/trial311/frames/epoch7.png
,,,,,mark,001,2024-02-15_01h18.12.629,iwisdm_med_pcy,2023.2.3,MacIntel,59.88023952,5829.9244,5831.5238,space,1.5851,,5831.5238,5854.1252,space,22.5751,,5854.1252,5854.9413,y,0.7981,,0,25,25,24,1,"observe object 1, observe object 2, observe object 3, observe object 4, observe object 5, observe object 6, observe object 7, observe object 8, if object of object 4 not equal object of object 1 , then object of object 7 not equal object of object 6 and object of object 3 not equal object of object 5 , else object of object 2 equal object of object 8 ?",true,./for_xx/trial209/frames/epoch0.png,./for_xx/trial209/frames/epoch1.png,./for_xx/trial209/frames/epoch2.png,./for_xx/trial209/frames/epoch3.png,./for_xx/trial209/frames/epoch4.png,./for_xx/trial209/frames/epoch5.png,./for_xx/trial209/frames/epoch6.png,./for_xx/trial209/frames/epoch7.png
,,,,,mark,001,2024-02-15_01h18.12.629,iwisdm_med_pcy,2023.2.3,MacIntel,59.88023952,5854.957,5858.1253,space,3.154,,5858.1254,6746.2307,space,888.0643,,6746.2308,6746.6291,y,0.3788,,0,26,26,42,1,"observe object 1, observe object 2, observe object 3, observe object 4, observe object 5, observe object 6, observe object 7, observe object 8, if category of object 4 not equal category of object 2 and object of object 5 not equal object of object 6 , then object of object 3 not equal object of object 1 , else object of object 8 not equal object of object 7 ?",true,./for_xx/trial304/frames/epoch0.png,./for_xx/trial304/frames/epoch1.png,./for_xx/trial304/frames/epoch2.png,./for_xx/trial304/frames/epoch3.png,./for_xx/trial304/frames/epoch4.png,./for_xx/trial304/frames/epoch5.png,./for_xx/trial304/frames/epoch6.png,./for_xx/trial304/frames/epoch7.png
,,,,,mark,001,2024-02-15_01h18.12.629,iwisdm_med_pcy,2023.2.3,MacIntel,59.88023952,6746.6444,6747.313,space,0.647,,6747.313,7465.1185,space,717.7769,,7465.1185,7465.5876,n,0.4535,,0,27,27,22,1,"observe object 1, observe object 2, observe object 3, observe object 4, observe object 5, delay, observe object 6, observe object 7, if category of object 3 equal category of object 2 , then object of object 1 not equal object of object 5 , else category of object 7 equal couches and object of object 4 not equal object of object 6 ?",false,./for_xx/trial301/frames/epoch0.png,./for_xx/trial301/frames/epoch1.png,./for_xx/trial301/frames/epoch2.png,./for_xx/trial301/frames/epoch3.png,./for_xx/trial301/frames/epoch4.png,./for_xx/trial301/frames/epoch5.png,./for_xx/trial301/frames/epoch6.png,./for_xx/trial301/frames/epoch7.png
,,,,,mark,001,2024-02-15_01h18.12.629,iwisdm_med_pcy,2023.2.3,MacIntel,59.88023952,7465.6046,7466.6544,space,1.0266,,7466.6545,7534.0026,space,67.297,,7534.0027,7534.4024,y,0.386,,0,28,28,38,1,"observe object 1, observe object 2, observe object 3, observe object 4, observe object 5, observe object 6, observe object 7, observe object 8, if location of object 4 not equal location of object 3 or object of object 2 equal object of object 1 , then object of object 5 equal object of object 6 , else category of object 7 equal category of object 8 ?",true,./for_xx/trial310/frames/epoch0.png,./for_xx/trial310/frames/epoch1.png,./for_xx/trial310/frames/epoch2.png,./for_xx/trial310/frames/epoch3.png,./for_xx/trial310/frames/epoch4.png,./for_xx/trial310/frames/epoch5.png,./for_xx/trial310/frames/epoch6.png,./for_xx/trial310/frames/epoch7.png
,,,,,mark,001,2024-02-15_01h18.12.629,iwisdm_med_pcy,2023.2.3,MacIntel,59.88023952,7534.4191,7535.3017,space,0.8664,,7535.3017,7549.4009,space,14.0733,,7549.401,7549.753,n,0.3336,,0,29,29,14,1,"observe object 1, delay, observe object 2, observe object 3, observe object 4, observe object 5, observe object 6, observe object 7, if object of object 2 equal object of object 3 , then category of object 6 not equal lighting and object of object 1 not equal object of object 4 , else category of object 7 equal category of object 5 ?",false,./for_xx/trial307/frames/epoch0.png,./for_xx/trial307/frames/epoch1.png,./for_xx/trial307/frames/epoch2.png,./for_xx/trial307/frames/epoch3.png,./for_xx/trial307/frames/epoch4.png,./for_xx/trial307/frames/epoch5.png,./for_xx/trial307/frames/epoch6.png,./for_xx/trial307/frames/epoch7.png
,,,,,mark,001,2024-02-15_01h18.12.629,iwisdm_med_pcy,2023.2.3,MacIntel,59.88023952,7549.7695,7550.8187,space,1.0338,,7550.8188,7573.5367,space,22.6825,,7573.5368,7573.9543,n,0.4027,,0,30,30,41,1,"observe object 1, delay, observe object 2, observe object 3, observe object 4, observe object 5, observe object 6, observe object 7, if category of object 3 not equal planes , then category of object 2 equal category of object 5 and category of object 7 not equal category of object 4 , else category of object 6 equal category of object 1 ?",false,./for_xx/trial109/frames/epoch0.png,./for_xx/trial109/frames/epoch1.png,./for_xx/trial109/frames/epoch2.png,./for_xx/trial109/frames/epoch3.png,./for_xx/trial109/frames/epoch4.png,./for_xx/trial109/frames/epoch5.png,./for_xx/trial109/frames/epoch6.png,./for_xx/trial109/frames/epoch7.png
,,,,,mark,001,2024-02-15_01h18.12.629,iwisdm_med_pcy,2023.2.3,MacIntel,59.88023952,7573.9704,7574.5167,space,0.5278,,7574.5167,7587.9184,space,13.3727,,7587.9184,7588.1848,n,0.2499,,0,31,31,19,1,"observe object 1, delay, observe object 2, observe object 3, observe object 4, observe object 5, observe object 6, if category of object 3 not equal boats , then category of object 6 not equal category of object 5 , else category of object 4 equal category of object 1 and category of object 2 not equal tables ?",false,./for_xx/trial102/frames/epoch0.png,./for_xx/trial102/frames/epoch1.png,./for_xx/trial102/frames/epoch2.png,./for_xx/trial102/frames/epoch3.png,./for_xx/trial102/frames/epoch4.png,./for_xx/trial102/frames/epoch5.png,./for_xx/trial102/frames/epoch6.png,./for_xx/nullframe.png
,,,,,mark,001,2024-02-15_01h18.12.629,iwisdm_med_pcy,2023.2.3,MacIntel,59.88023952,7588.1994,7588.8344,space,0.6167,,7588.8345,8332.7752,space,743.9185,,8332.7753,8333.0755,n,0.2837,,0,32,32,26,1,"observe object 1, observe object 2, observe object 3, observe object 4, observe object 5, observe object 6, observe object 7, observe object 8, if object of object 7 equal object of object 1 , then object of object 3 not equal object of object 5 or object of object 4 equal object of object 8 , else object of object 6 not equal object of object 2 ?",false,./for_xx/trial200/frames/epoch0.png,./for_xx/trial200/frames/epoch1.png,./for_xx/trial200/frames/epoch2.png,./for_xx/trial200/frames/epoch3.png,./for_xx/trial200/frames/epoch4.png,./for_xx/trial200/frames/epoch5.png,./for_xx/trial200/frames/epoch6.png,./for_xx/trial200/frames/epoch7.png
,,,,,mark,001,2024-02-15_01h18.12.629,iwisdm_med_pcy,2023.2.3,MacIntel,59.88023952,8333.0924,8333.4736,space,0.3471,,8333.4736,8346.4062,space,12.8946,,8346.4063,8346.9729,y,0.5514,,0,33,33,47,1,"observe object 1, observe object 2, observe object 3, observe object 4, observe object 5, observe object 6, if category of object 5 equal category of object 1 , then category of object 6 equal cars and category of object 4 equal category of object 2 , else category of object 3 not equal chairs ?",true,./for_xx/trial108/frames/epoch0.png,./for_xx/trial108/frames/epoch1.png,./for_xx/trial108/frames/epoch2.png,./for_xx/trial108/frames/epoch3.png,./for_xx/trial108/frames/epoch4.png,./for_xx/trial108/frames/epoch5.png,./for_xx/nullframe.png,./for_xx/nullframe.png
,,,,,mark,001,2024-02-15_01h18.12.629,iwisdm_med_pcy,2023.2.3,MacIntel,59.88023952,8346.9863,8347.3572,space,0.3495,,8347.3573,8372.5554,space,25.1711,,8372.5555,8375.0887,n,2.5174,,0,34,34,28,1,"observe object 1, delay, observe object 2, observe object 3, observe object 4, observe object 5, observe object 6, observe object 7, if location of object 7 equal top right , then location of object 3 equal location of object 5 and location of object 4 equal location of object 2 , else location of object 1 not equal location of object 6 ?",false,./for_xx/trial3/frames/epoch0.png,./for_xx/trial3/frames/epoch1.png,./for_xx/trial3/frames/epoch2.png,./for_xx/trial3/frames/epoch3.png,./for_xx/trial3/frames/epoch4.png,./for_xx/trial3/frames/epoch5.png,./for_xx/trial3/frames/epoch6.png,./for_xx/trial3/frames/epoch7.png
,,,,,mark,001,2024-02-15_01h18.12.629,iwisdm_med_pcy,2023.2.3,MacIntel,59.88023952,8375.1042,8375.7059,space,0.5834,,8375.706,8450.2049,space,74.4754,,8450.205,8450.7215,y,0.5023,,0,35,35,17,1,"observe object 1, observe object 2, observe object 3, delay, observe object 4, observe object 5, observe object 6, observe object 7, if category of object 6 not equal category of object 7 or category of object 2 equal tables , then category of object 5 not equal category of object 4 , else category of object 1 not equal category of object 3 ?",true,./for_xx/trial104/frames/epoch0.png,./for_xx/trial104/frames/epoch1.png,./for_xx/trial104/frames/epoch2.png,./for_xx/trial104/frames/epoch3.png,./for_xx/trial104/frames/epoch4.png,./for_xx/trial104/frames/epoch5.png,./for_xx/trial104/frames/epoch6.png,./for_xx/trial104/frames/epoch7.png
,,,,,mark,001,2024-02-15_01h18.12.629,iwisdm_med_pcy,2023.2.3,MacIntel,59.88023952,8450.7354,8451.0894,space,0.3355,,8451.0894,9258.4941,space,807.3858,,9258.4942,9258.8939,y,0.3837,,0,36,36,16,1,"observe object 1, observe object 2, delay, observe object 3, observe object 4, observe object 5, observe object 6, if category of object 6 not equal category of object 5 and location of object 3 equal bottom right , then object of object 1 equal object of object 2 , else location of object 4 equal top left ?",true,./for_xx/trial309/frames/epoch0.png,./for_xx/trial309/frames/epoch1.png,./for_xx/trial309/frames/epoch2.png,./for_xx/trial309/frames/epoch3.png,./for_xx/trial309/frames/epoch4.png,./for_xx/trial309/frames/epoch5.png,./for_xx/trial309/frames/epoch6.png,./for_xx/trial309/frames/epoch7.png
,,,,,mark,001,2024-02-15_01h18.12.629,iwisdm_med_pcy,2023.2.3,MacIntel,59.88023952,9258.9071,9259.4935,space,0.5687,,9259.4935,9272.2106,space,12.6845,,9272.2107,9272.6605,y,0.4349,,0,37,37,34,1,"observe object 1, delay, observe object 2, observe object 3, observe object 4, delay, observe object 5, if category of object 3 equal cars , then category of object 4 equal tables or location of object 5 not equal location of object 2 , else location of object 1 equal top left ?",true,./for_xx/trial318/frames/epoch0.png,./for_xx/trial318/frames/epoch1.png,./for_xx/trial318/frames/epoch2.png,./for_xx/trial318/frames/epoch3.png,./for_xx/trial318/frames/epoch4.png,./for_xx/trial318/frames/epoch5.png,./for_xx/trial318/frames/epoch6.png,./for_xx/nullframe.png
,,,,,mark,001,2024-02-15_01h18.12.629,iwisdm_med_pcy,2023.2.3,MacIntel,59.88023952,9272.6729,9273.0781,space,0.3831,,9273.0781,9299.6268,space,26.5166,,9299.6269,9299.9435,n,0.3011,,0,38,38,6,1,"observe object 1, observe object 2, observe object 3, observe object 4, observe object 5, observe object 6, observe object 7, observe object 8, if object of object 8 equal object of object 2 or object of object 4 not equal object of object 1 , then object of object 3 equal object of object 6 , else object of object 5 not equal object of object 7 ?",false,./for_xx/trial202/frames/epoch0.png,./for_xx/trial202/frames/epoch1.png,./for_xx/trial202/frames/epoch2.png,./for_xx/trial202/frames/epoch3.png,./for_xx/trial202/frames/epoch4.png,./for_xx/trial202/frames/epoch5.png,./for_xx/trial202/frames/epoch6.png,./for_xx/trial202/frames/epoch7.png
,,,,,mark,001,2024-02-15_01h18.12.629,iwisdm_med_pcy,2023.2.3,MacIntel,59.88023952,9299.9594,9300.5601,space,0.5833,,9300.5601,9353.3594,space,52.7726,,9353.3595,9353.6425,n,0.2673,,0,39,39,0,1,"observe object 1, observe object 2, observe object 3, observe object 4, observe object 5, observe object 6, observe object 7, observe object 8, if location of object 1 not equal location of object 8 or location of object 2 equal location of object 6 , then location of object 5 not equal location of object 7 , else location of object 3 equal location of object 4 ?",false,./for_xx/trial9/frames/epoch0.png,./for_xx/trial9/frames/epoch1.png,./for_xx/trial9/frames/epoch2.png,./for_xx/trial9/frames/epoch3.png,./for_xx/trial9/frames/epoch4.png,./for_xx/trial9/frames/epoch5.png,./for_xx/trial9/frames/epoch6.png,./for_xx/trial9/frames/epoch7.png
,,,,,mark,001,2024-02-15_01h18.12.629,iwisdm_med_pcy,2023.2.3,MacIntel,59.88023952,9353.658,9353.9593,space,0.2833,,9353.9594,9405.5424,space,51.5562,,9405.5425,9405.8253,n,0.2672,,0,40,40,18,1,"observe object 1, delay, observe object 2, observe object 3, observe object 4, observe object 5, observe object 6, observe object 7, if category of object 6 not equal category of object 3 , then category of object 7 equal category of object 2 and category of object 1 not equal couches , else category of object 4 equal category of object 5 ?",false,./for_xx/trial103/frames/epoch0.png,./for_xx/trial103/frames/epoch1.png,./for_xx/trial103/frames/epoch2.png,./for_xx/trial103/frames/epoch3.png,./for_xx/trial103/frames/epoch4.png,./for_xx/trial103/frames/epoch5.png,./for_xx/trial103/frames/epoch6.png,./for_xx/trial103/frames/epoch7.png
,,,,,mark,001,2024-02-15_01h18.12.629,iwisdm_med_pcy,2023.2.3,MacIntel,59.88023952,9405.8409,9406.2419,space,0.3838,,9406.2419,9432.3249,space,26.0511,,9432.3249,9432.625,y,0.284,,0,41,41,29,1,"observe object 1, observe object 2, observe object 3, observe object 4, observe object 5, observe object 6, observe object 7, observe object 8, if object of object 8 not equal object of object 1 , then object of object 3 not equal object of object 5 and object of object 4 not equal object of object 7 , else object of object 2 equal object of object 6 ?",true,./for_xx/trial206/frames/epoch0.png,./for_xx/trial206/frames/epoch1.png,./for_xx/trial206/frames/epoch2.png,./for_xx/trial206/frames/epoch3.png,./for_xx/trial206/frames/epoch4.png,./for_xx/trial206/frames/epoch5.png,./for_xx/trial206/frames/epoch6.png,./for_xx/trial206/frames/epoch7.png
,,,,,mark,001,2024-02-15_01h18.12.629,iwisdm_med_pcy,2023.2.3,MacIntel,59.88023952,9432.6398,9432.9252,space,0.2662,,9432.9252,9448.9415,space,15.9931,,9448.9416,9449.1746,y,0.2172,,0,42,42,44,1,"observe object 1, observe object 2, observe object 3, observe object 4, observe object 5, observe object 6, observe object 7, observe object 8, if category of object 3 equal category of object 4 , then category of object 1 not equal category of object 2 , else category of object 7 equal category of object 8 and category of object 6 equal category of object 5 ?",false,./for_xx/trial107/frames/epoch0.png,./for_xx/trial107/frames/epoch1.png,./for_xx/trial107/frames/epoch2.png,./for_xx/trial107/frames/epoch3.png,./for_xx/trial107/frames/epoch4.png,./for_xx/trial107/frames/epoch5.png,./for_xx/trial107/frames/epoch6.png,./for_xx/trial107/frames/epoch7.png
,,,,,mark,001,2024-02-15_01h18.12.629,iwisdm_med_pcy,2023.2.3,MacIntel,59.88023952,9449.1872,9450.0246,space,0.8157,,9450.0246,9473.7232,space,23.6778,,9473.7233,9475.5577,n,1.8172,,0,43,43,15,1,"observe object 1, observe object 2, delay, observe object 3, observe object 4, observe object 5, observe object 6, observe object 7, if object of object 5 equal object of object 1 , then category of object 2 not equal cars , else object of object 7 not equal object of object 4 and object of object 3 not equal object of object 6 ?",false,./for_xx/trial300/frames/epoch0.png,./for_xx/trial300/frames/epoch1.png,./for_xx/trial300/frames/epoch2.png,./for_xx/trial300/frames/epoch3.png,./for_xx/trial300/frames/epoch4.png,./for_xx/trial300/frames/epoch5.png,./for_xx/trial300/frames/epoch6.png,./for_xx/trial300/frames/epoch7.png
,,,,,mark,001,2024-02-15_01h18.12.629,iwisdm_med_pcy,2023.2.3,MacIntel,59.88023952,9475.5703,9476.1068,space,0.5165,,9476.1069,9493.8742,space,17.7435,,9493.8742,9494.1901,y,0.3009,,0,44,44,20,1,"observe object 1, observe object 2, observe object 3, observe object 4, observe object 5, observe object 6, observe object 7, if location of object 5 equal location of object 6 and object of object 3 equal object of object 2 , then category of object 7 equal couches , else object of object 1 not equal object of object 4 ?",true,./for_xx/trial308/frames/epoch0.png,./for_xx/trial308/frames/epoch1.png,./for_xx/trial308/frames/epoch2.png,./for_xx/trial308/frames/epoch3.png,./for_xx/trial308/frames/epoch4.png,./for_xx/trial308/frames/epoch5.png,./for_xx/trial308/frames/epoch6.png,./for_xx/nullframe.png
,,,,,mark,001,2024-02-15_01h18.12.629,iwisdm_med_pcy,2023.2.3,MacIntel,59.88023952,9494.2024,9698.8037,space,204.5759,,9698.8038,9711.0043,space,12.1525,,9711.0044,9711.3708,n,0.352,,0,45,45,9,1,"observe object 1, observe object 2, observe object 3, observe object 4, observe object 5, observe object 6, observe object 7, if location of object 6 not equal location of object 5 , then location of object 3 equal top left or location of object 2 not equal location of object 1 , else location of object 4 not equal location of object 7 ?",false,./for_xx/trial8/frames/epoch0.png,./for_xx/trial8/frames/epoch1.png,./for_xx/trial8/frames/epoch2.png,./for_xx/trial8/frames/epoch3.png,./for_xx/trial8/frames/epoch4.png,./for_xx/trial8/frames/epoch5.png,./for_xx/trial8/frames/epoch6.png,./for_xx/nullframe.png
,,,,,mark,001,2024-02-15_01h18.12.629,iwisdm_med_pcy,2023.2.3,MacIntel,59.88023952,9711.384,9711.87,space,0.4665,,9711.8701,9730.2703,space,18.3815,,9730.2704,9730.5876,n,0.3003,,0,46,46,43,1,"observe object 1, observe object 2, observe object 3, observe object 4, observe object 5, observe object 6, if category of object 1 not equal benches and category of object 2 not equal category of object 4 , then category of object 3 equal tables , else category of object 6 equal category of object 5 ?",false,./for_xx/trial100/frames/epoch0.png,./for_xx/trial100/frames/epoch1.png,./for_xx/trial100/frames/epoch2.png,./for_xx/trial100/frames/epoch3.png,./for_xx/trial100/frames/epoch4.png,./for_xx/trial100/frames/epoch5.png,./for_xx/nullframe.png,./for_xx/nullframe.png
,,,,,mark,001,2024-02-15_01h18.12.629,iwisdm_med_pcy,2023.2.3,MacIntel,59.88023952,9730.602,9730.9378,space,0.3217,,9730.9379,9749.9037,space,18.9352,,9749.9037,9750.154,n,0.2356,,0,47,47,39,1,"observe object 1, observe object 2, observe object 3, delay, observe object 4, observe object 5, observe object 6, observe object 7, if object of object 6 not equal object of object 4 , then location of object 5 equal bottom right , else object of object 7 not equal object of object 3 and category of object 1 not equal category of object 2 ?",false,./for_xx/trial319/frames/epoch0.png,./for_xx/trial319/frames/epoch1.png,./for_xx/trial319/frames/epoch2.png,./for_xx/trial319/frames/epoch3.png,./for_xx/trial319/frames/epoch4.png,./for_xx/trial319/frames/epoch5.png,./for_xx/trial319/frames/epoch6.png,./for_xx/trial319/frames/epoch7.png
,,,,,mark,001,2024-02-15_01h18.12.629,iwisdm_med_pcy,2023.2.3,MacIntel,59.88023952,9750.1671,9750.3539,space,0.1668,,9750.354,9810.9862,space,60.6002,,9810.9863,9811.4196,y,0.4174,,0,48,48,48,1,"observe object 1, observe object 2, observe object 3, observe object 4, observe object 5, observe object 6, observe object 7, observe object 8, if location of object 3 equal location of object 5 and object of object 2 not equal object of object 7 , then object of object 1 not equal object of object 4 , else object of object 8 equal object of object 6 ?",true,./for_xx/trial305/frames/epoch0.png,./for_xx/trial305/frames/epoch1.png,./for_xx/trial305/frames/epoch2.png,./for_xx/trial305/frames/epoch3.png,./for_xx/trial305/frames/epoch4.png,./for_xx/trial305/frames/epoch5.png,./for_xx/trial305/frames/epoch6.png,./for_xx/trial305/frames/epoch7.png
,,,,,mark,001,2024-02-15_01h18.12.629,iwisdm_med_pcy,2023.2.3,MacIntel,59.88023952,9811.4323,9811.9532,space,0.5012,,9811.9533,9851.1527,space,39.1734,,9851.1527,9851.4357,n,0.2719,,0,49,49,36,1,"observe object 1, observe object 2, observe object 3, observe object 4, observe object 5, delay, observe object 6, observe object 7, if category of object 2 not equal category of object 7 , then object of object 1 equal object of object 3 , else object of object 4 equal object of object 5 and category of object 6 not equal benches ?",false,./for_xx/trial316/frames/epoch0.png,./for_xx/trial316/frames/epoch1.png,./for_xx/trial316/frames/epoch2.png,./for_xx/trial316/frames/epoch3.png,./for_xx/trial316/frames/epoch4.png,./for_xx/trial316/frames/epoch5.png,./for_xx/trial316/frames/epoch6.png,./for_xx/trial316/frames/epoch7.png