new_trial.started,new_trial.stopped,key_resp.keys,key_resp.rt,key_resp.duration,participant,session,date,expName,psychopyVersion,OS,frameRate,trial.started,trial.stopped,continue_from_intro.keys,continue_from_intro.rt,continue_from_intro.duration,frame0_2.started,frame0_2.stopped,key_resp_2.keys,key_resp_2.rt,key_resp_2.duration,ending.started,ending.stopped,key_resp_5.keys,key_resp_5.rt,key_resp_5.duration,trials.thisRepN,trials.thisTrialN,trials.thisN,trials.thisIndex,trials.ran,instruction,action,frame0,frame1,frame2,frame3,frame4,frame5,frame6,frame7
0.000400001,1.713700001,space,1.7007,,Motahareh,001,2024-02-15_11h18.07.726,iwisdm_med_pcy,2023.2.3,MacIntel,30.03003003,,,,,,,,,,,,,,,,,,,,,,,,,,,,,,
,,,,,Motahareh,001,2024-02-15_11h18.07.726,iwisdm_med_pcy,2023.2.3,MacIntel,30.03003003,1.7238,4.5135,space,2.766900001,,4.5138,58.3414,space,53.7979,,58.3415,58.9091,n,0.5422,,0,0,0,36,1,"observe object 1, observe object 2, observe object 3, observe object 4, observe object 5, delay, observe object 6, observe object 7, if category of object 2 not equal category of object 7 , then object of object 1 equal object of object 3 , else object of object 4 equal object of object 5 and category of object 6 not equal benches ?",false,./for_xx/trial316/frames/epoch0.png,./for_xx/trial316/frames/epoch1.png,./for_xx/trial316/frames/epoch2.png,./for_xx/trial316/frames/epoch3.png,./for_xx/trial316/frames/epoch4.png,./for_xx/trial316/frames/epoch5.png,./for_xx/trial316/frames/epoch6.png,./for_xx/trial316/frames/epoch7.png
,,,,,Motahareh,001,2024-02-15_11h18.07.726,iwisdm_med_pcy,2023.2.3,MacIntel,30.03003003,58.9203,59.8778,space,0.9447,,59.878,91.3552,space,31.4417,,91.3553,92.6514,n,1.2674,,0,1,1,2,1,"observe object 1, delay, observe object 2, observe object 3, observe object 4, observe object 5, if location of object 3 not equal top right or location of object 2 equal top left , then location of object 1 equal top left , else location of object 4 not equal location of object 5 ?",false,./for_xx/trial0/frames/epoch0.png,./for_xx/trial0/frames/epoch1.png,./for_xx/trial0/frames/epoch2.png,./for_xx/trial0/frames/epoch3.png,./for_xx/trial0/frames/epoch4.png,./for_xx/trial0/frames/epoch5.png,./for_xx/nullframe.png,./for_xx/nullframe.png
,,,,,Motahareh,001,2024-02-15_11h18.07.726,iwisdm_med_pcy,2023.2.3,MacIntel,30.03003003,92.6617,100.8936,space,8.1927,,100.8937,127.5697,space,26.6217,,127.5699,128.0354,y,0.4549,,0,2,2,1,1,"observe object 1, observe object 2, observe object 3, observe object 4, observe object 5, observe object 6, observe object 7, observe object 8, if object of object 5 equal object of object 6 , then object of object 7 equal object of object 4 or object of object 8 not equal object of object 3 , else object of object 1 not equal object of object 2 ?",true,./for_xx/trial204/frames/epoch0.png,./for_xx/trial204/frames/epoch1.png,./for_xx/trial204/frames/epoch2.png,./for_xx/trial204/frames/epoch3.png,./for_xx/trial204/frames/epoch4.png,./for_xx/trial204/frames/epoch5.png,./for_xx/trial204/frames/epoch6.png,./for_xx/trial204/frames/epoch7.png
,,,,,Motahareh,001,2024-02-15_11h18.07.726,iwisdm_med_pcy,2023.2.3,MacIntel,30.03003003,128.0457,128.5005,space,0.4185,,128.5005,164.2152,space,35.6682,,164.2155,164.7143,y,0.4794,,0,3,3,5,1,"observe object 1, observe object 2, observe object 3, observe object 4, observe object 5, observe object 6, observe object 7, observe object 8, if location of object 7 equal location of object 2 or location of object 8 equal location of object 4 , then location of object 3 equal location of object 1 , else location of object 6 equal location of object 5 ?",true,./for_xx/trial6/frames/epoch0.png,./for_xx/trial6/frames/epoch1.png,./for_xx/trial6/frames/epoch2.png,./for_xx/trial6/frames/epoch3.png,./for_xx/trial6/frames/epoch4.png,./for_xx/trial6/frames/epoch5.png,./for_xx/trial6/frames/epoch6.png,./for_xx/trial6/frames/epoch7.png
,,,,,Motahareh,001,2024-02-15_11h18.07.726,iwisdm_med_pcy,2023.2.3,MacIntel,30.03003003,164.7261,165.0809,space,0.3171,,165.081,198.1626,space,33.0534,,198.1626,198.9316,n,0.7372,,0,4,4,9,1,"observe object 1, observe object 2, observe object 3, observe object 4, observe object 5, observe object 6, observe object 7, if location of object 6 not equal location of object 5 , then location of object 3 equal top left or location of object 2 not equal location of object 1 , else location of object 4 not equal location of object 7 ?",false,./for_xx/trial8/frames/epoch0.png,./for_xx/trial8/frames/epoch1.png,./for_xx/trial8/frames/epoch2.png,./for_xx/trial8/frames/epoch3.png,./for_xx/trial8/frames/epoch4.png,./for_xx/trial8/frames/epoch5.png,./for_xx/trial8/frames/epoch6.png,./for_xx/nullframe.png
,,,,,Motahareh,001,2024-02-15_11h18.07.726,iwisdm_med_pcy,2023.2.3,MacIntel,30.03003003,198.9417,199.4373,space,0.4572,,199.4374,228.5466,space,29.077,,228.5466,229.1782,n,0.613400001,,0,5,5,37,1,"observe object 1, observe object 2, observe object 3, observe object 4, observe object 5, delay, observe object 6, observe object 7, if location of object 5 not equal location of object 3 , then location of object 1 not equal top left or object of object 4 not equal object of object 2 , else location of object 6 equal location of object 7 ?",false,./for_xx/trial317/frames/epoch0.png,./for_xx/trial317/frames/epoch1.png,./for_xx/trial317/frames/epoch2.png,./for_xx/trial317/frames/epoch3.png,./for_xx/trial317/frames/epoch4.png,./for_xx/trial317/frames/epoch5.png,./for_xx/trial317/frames/epoch6.png,./for_xx/trial317/frames/epoch7.png
,,,,,Motahareh,001,2024-02-15_11h18.07.726,iwisdm_med_pcy,2023.2.3,MacIntel,30.03003003,229.1859,229.5796,space,0.362599999,,229.5797,243.889,space,14.2833,,243.8892,244.3897,n,0.4682,,0,6,6,41,1,"observe object 1, delay, observe object 2, observe object 3, observe object 4, observe object 5, observe object 6, observe object 7, if category of object 3 not equal planes , then category of object 2 equal category of object 5 and category of object 7 not equal category of object 4 , else category of object 6 equal category of object 1 ?",false,./for_xx/trial109/frames/epoch0.png,./for_xx/trial109/frames/epoch1.png,./for_xx/trial109/frames/epoch2.png,./for_xx/trial109/frames/epoch3.png,./for_xx/trial109/frames/epoch4.png,./for_xx/trial109/frames/epoch5.png,./for_xx/trial109/frames/epoch6.png,./for_xx/trial109/frames/epoch7.png
,,,,,Motahareh,001,2024-02-15_11h18.07.726,iwisdm_med_pcy,2023.2.3,MacIntel,30.03003003,244.4,244.7899,space,0.372599999,,244.79,283.8692,space,39.0594,,283.8693,284.307,y,0.4312,,0,7,7,45,1,"observe object 1, delay, observe object 2, observe object 3, observe object 4, observe object 5, observe object 6, if category of object 2 equal benches , then category of object 5 equal category of object 4 , else category of object 6 not equal category of object 1 or category of object 3 equal chairs ?",false,./for_xx/trial106/frames/epoch0.png,./for_xx/trial106/frames/epoch1.png,./for_xx/trial106/frames/epoch2.png,./for_xx/trial106/frames/epoch3.png,./for_xx/trial106/frames/epoch4.png,./for_xx/trial106/frames/epoch5.png,./for_xx/trial106/frames/epoch6.png,./for_xx/nullframe.png
,,,,,Motahareh,001,2024-02-15_11h18.07.726,iwisdm_med_pcy,2023.2.3,MacIntel,30.03003003,284.3148,284.7068,space,0.3683,,284.7068,307.0122,space,22.2702,,307.0123,307.5462,y,0.5042,,0,8,8,17,1,"observe object 1, observe object 2, observe object 3, delay, observe object 4, observe object 5, observe object 6, observe object 7, if category of object 6 not equal category of object 7 or category of object 2 equal tables , then category of object 5 not equal category of object 4 , else category of object 1 not equal category of object 3 ?",true,./for_xx/trial104/frames/epoch0.png,./for_xx/trial104/frames/epoch1.png,./for_xx/trial104/frames/epoch2.png,./for_xx/trial104/frames/epoch3.png,./for_xx/trial104/frames/epoch4.png,./for_xx/trial104/frames/epoch5.png,./for_xx/trial104/frames/epoch6.png,./for_xx/trial104/frames/epoch7.png
,,,,,Motahareh,001,2024-02-15_11h18.07.726,iwisdm_med_pcy,2023.2.3,MacIntel,30.03003003,307.5564,307.8796,space,0.294099999,,307.8796,330.6261,space,22.7148,,330.6261,331.0621,n,0.4038,,0,9,9,19,1,"observe object 1, delay, observe object 2, observe object 3, observe object 4, observe object 5, observe object 6, if category of object 3 not equal boats , then category of object 6 not equal category of object 5 , else category of object 4 equal category of object 1 and category of object 2 not equal tables ?",false,./for_xx/trial102/frames/epoch0.png,./for_xx/trial102/frames/epoch1.png,./for_xx/trial102/frames/epoch2.png,./for_xx/trial102/frames/epoch3.png,./for_xx/trial102/frames/epoch4.png,./for_xx/trial102/frames/epoch5.png,./for_xx/trial102/frames/epoch6.png,./for_xx/nullframe.png
,,,,,Motahareh,001,2024-02-15_11h18.07.726,iwisdm_med_pcy,2023.2.3,MacIntel,30.03003003,331.0743,331.3287,space,0.2277,,331.3288,351.9395,space,20.5708,,351.9395,352.3057,n,0.3468,,0,10,10,15,1,"observe object 1, observe object 2, delay, observe object 3, observe object 4, observe object 5, observe object 6, observe object 7, if object of object 5 equal object of object 1 , then category of object 2 not equal cars , else object of object 7 not equal object of object 4 and object of object 3 not equal object of object 6 ?",false,./for_xx/trial300/frames/epoch0.png,./for_xx/trial300/frames/epoch1.png,./for_xx/trial300/frames/epoch2.png,./for_xx/trial300/frames/epoch3.png,./for_xx/trial300/frames/epoch4.png,./for_xx/trial300/frames/epoch5.png,./for_xx/trial300/frames/epoch6.png,./for_xx/trial300/frames/epoch7.png
,,,,,Motahareh,001,2024-02-15_11h18.07.726,iwisdm_med_pcy,2023.2.3,MacIntel,30.03003003,352.3146,352.705,space,0.3503,,352.7051,402.6634,space,49.9121,,402.6635,402.9942,n,0.2994,,0,11,11,6,1,"observe object 1, observe object 2, observe object 3, observe object 4, observe object 5, observe object 6, observe object 7, observe object 8, if object of object 8 equal object of object 2 or object of object 4 not equal object of object 1 , then object of object 3 equal object of object 6 , else object of object 5 not equal object of object 7 ?",false,./for_xx/trial202/frames/epoch0.png,./for_xx/trial202/frames/epoch1.png,./for_xx/trial202/frames/epoch2.png,./for_xx/trial202/frames/epoch3.png,./for_xx/trial202/frames/epoch4.png,./for_xx/trial202/frames/epoch5.png,./for_xx/trial202/frames/epoch6.png,./for_xx/trial202/frames/epoch7.png
,,,,,Motahareh,001,2024-02-15_11h18.07.726,iwisdm_med_pcy,2023.2.3,MacIntel,30.03003003,403.0038,403.2609,space,0.237,,403.2609,421.3412,space,18.0626,,421.3413,421.807,y,0.4581,,0,12,12,23,1,"observe object 1, delay, observe object 2, observe object 3, observe object 4, observe object 5, observe object 6, if object of object 3 equal object of object 4 , then location of object 1 equal bottom left or location of object 2 equal location of object 5 , else category of object 6 not equal couches ?",true,./for_xx/trial306/frames/epoch0.png,./for_xx/trial306/frames/epoch1.png,./for_xx/trial306/frames/epoch2.png,./for_xx/trial306/frames/epoch3.png,./for_xx/trial306/frames/epoch4.png,./for_xx/trial306/frames/epoch5.png,./for_xx/trial306/frames/epoch6.png,./for_xx/trial306/frames/epoch7.png
,,,,,Motahareh,001,2024-02-15_11h18.07.726,iwisdm_med_pcy,2023.2.3,MacIntel,30.03003003,421.8164,422.5411,space,0.7031,,422.5411,440.7098,space,18.1335,,440.7099,441.0421,y,0.3132,,0,13,13,38,1,"observe object 1, observe object 2, observe object 3, observe object 4, observe object 5, observe object 6, observe object 7, observe object 8, if location of object 4 not equal location of object 3 or object of object 2 equal object of object 1 , then object of object 5 equal object of object 6 , else category of object 7 equal category of object 8 ?",true,./for_xx/trial310/frames/epoch0.png,./for_xx/trial310/frames/epoch1.png,./for_xx/trial310/frames/epoch2.png,./for_xx/trial310/frames/epoch3.png,./for_xx/trial310/frames/epoch4.png,./for_xx/trial310/frames/epoch5.png,./for_xx/trial310/frames/epoch6.png,./for_xx/trial310/frames/epoch7.png
,,,,,Motahareh,001,2024-02-15_11h18.07.726,iwisdm_med_pcy,2023.2.3,MacIntel,30.03003003,441.0516,441.3448,space,0.2788,,441.3448,474.8231,space,33.4569,,474.8232,475.2613,y,0.4182,,0,14,14,24,1,"observe object 1, observe object 2, observe object 3, observe object 4, observe object 5, observe object 6, observe object 7, observe object 8, if object of object 4 not equal object of object 1 , then object of object 7 not equal object of object 6 and object of object 3 not equal object of object 5 , else object of object 2 equal object of object 8 ?",true,./for_xx/trial209/frames/epoch0.png,./for_xx/trial209/frames/epoch1.png,./for_xx/trial209/frames/epoch2.png,./for_xx/trial209/frames/epoch3.png,./for_xx/trial209/frames/epoch4.png,./for_xx/trial209/frames/epoch5.png,./for_xx/trial209/frames/epoch6.png,./for_xx/trial209/frames/epoch7.png
,,,,,Motahareh,001,2024-02-15_11h18.07.726,iwisdm_med_pcy,2023.2.3,MacIntel,30.03003003,475.2704,475.6609,space,0.3783,,475.6609,524.953,space,49.2772,,524.953,525.3547,y,0.3732,,0,15,15,44,1,"observe object 1, observe object 2, observe object 3, observe object 4, observe object 5, observe object 6, observe object 7, observe object 8, if category of object 3 equal category of object 4 , then category of object 1 not equal category of object 2 , else category of object 7 equal category of object 8 and category of object 6 equal category of object 5 ?",false,./for_xx/trial107/frames/epoch0.png,./for_xx/trial107/frames/epoch1.png,./for_xx/trial107/frames/epoch2.png,./for_xx/trial107/frames/epoch3.png,./for_xx/trial107/frames/epoch4.png,./for_xx/trial107/frames/epoch5.png,./for_xx/trial107/frames/epoch6.png,./for_xx/trial107/frames/epoch7.png
,,,,,Motahareh,001,2024-02-15_11h18.07.726,iwisdm_med_pcy,2023.2.3,MacIntel,30.03003003,525.364,525.5876,space,0.1881,,525.5877,565.9061,space,40.289,,565.9062,566.3424,n,0.432,,0,16,16,33,1,"observe object 1, observe object 2, observe object 3, observe object 4, observe object 5, observe object 6, observe object 7, observe object 8, if object of object 2 equal object of object 8 , then object of object 5 equal object of object 6 and object of object 3 equal object of object 4 , else object of object 1 equal object of object 7 ?",false,./for_xx/trial208/frames/epoch0.png,./for_xx/trial208/frames/epoch1.png,./for_xx/trial208/frames/epoch2.png,./for_xx/trial208/frames/epoch3.png,./for_xx/trial208/frames/epoch4.png,./for_xx/trial208/frames/epoch5.png,./for_xx/trial208/frames/epoch6.png,./for_xx/trial208/frames/epoch7.png
,,,,,Motahareh,001,2024-02-15_11h18.07.726,iwisdm_med_pcy,2023.2.3,MacIntel,30.03003003,566.3538,566.7718,space,0.402799999,,566.7719,605.2643,space,38.4769,,605.2645,605.5634,n,0.2744,,0,17,17,31,1,"observe object 1, observe object 2, observe object 3, observe object 4, observe object 5, observe object 6, observe object 7, if location of object 1 equal location of object 5 or location of object 3 equal bottom right , then location of object 7 not equal location of object 6 , else location of object 2 not equal location of object 4 ?",false,./for_xx/trial5/frames/epoch0.png,./for_xx/trial5/frames/epoch1.png,./for_xx/trial5/frames/epoch2.png,./for_xx/trial5/frames/epoch3.png,./for_xx/trial5/frames/epoch4.png,./for_xx/trial5/frames/epoch5.png,./for_xx/trial5/frames/epoch6.png,./for_xx/nullframe.png
,,,,,Motahareh,001,2024-02-15_11h18.07.726,iwisdm_med_pcy,2023.2.3,MacIntel,30.03003003,605.5731,605.9642,space,0.3522,,605.9643,682.1653,space,76.1789,,682.1655,683.1673,y,0.987700001,,0,18,18,20,1,"observe object 1, observe object 2, observe object 3, observe object 4, observe object 5, observe object 6, observe object 7, if location of object 5 equal location of object 6 and object of object 3 equal object of object 2 , then category of object 7 equal couches , else object of object 1 not equal object of object 4 ?",true,./for_xx/trial308/frames/epoch0.png,./for_xx/trial308/frames/epoch1.png,./for_xx/trial308/frames/epoch2.png,./for_xx/trial308/frames/epoch3.png,./for_xx/trial308/frames/epoch4.png,./for_xx/trial308/frames/epoch5.png,./for_xx/trial308/frames/epoch6.png,./for_xx/nullframe.png
,,,,,Motahareh,001,2024-02-15_11h18.07.726,iwisdm_med_pcy,2023.2.3,MacIntel,30.03003003,683.177,683.6362,space,0.421,,683.6364,716.5509,space,32.8696,,716.551,717.0835,y,0.502,,0,19,19,30,1,"observe object 1, observe object 2, observe object 3, observe object 4, observe object 5, delay, observe object 6, if location of object 3 equal location of object 4 , then location of object 1 not equal bottom right and location of object 2 equal location of object 5 , else location of object 6 not equal top left ?",true,./for_xx/trial2/frames/epoch0.png,./for_xx/trial2/frames/epoch1.png,./for_xx/trial2/frames/epoch2.png,./for_xx/trial2/frames/epoch3.png,./for_xx/trial2/frames/epoch4.png,./for_xx/trial2/frames/epoch5.png,./for_xx/trial2/frames/epoch6.png,./for_xx/nullframe.png
,,,,,Motahareh,001,2024-02-15_11h18.07.726,iwisdm_med_pcy,2023.2.3,MacIntel,30.03003003,717.0939,717.9848,space,0.8747,,717.9849,736.2539,space,18.2289,,736.2539,736.8554,n,0.5846,,0,20,20,7,1,"observe object 1, observe object 2, observe object 3, observe object 4, observe object 5, observe object 6, observe object 7, observe object 8, if object of object 3 equal object of object 2 and object of object 4 not equal object of object 6 , then object of object 7 not equal object of object 8 , else object of object 5 not equal object of object 1 ?",false,./for_xx/trial205/frames/epoch0.png,./for_xx/trial205/frames/epoch1.png,./for_xx/trial205/frames/epoch2.png,./for_xx/trial205/frames/epoch3.png,./for_xx/trial205/frames/epoch4.png,./for_xx/trial205/frames/epoch5.png,./for_xx/trial205/frames/epoch6.png,./for_xx/trial205/frames/epoch7.png
,,,,,Motahareh,001,2024-02-15_11h18.07.726,iwisdm_med_pcy,2023.2.3,MacIntel,30.03003003,736.8647,737.3219,space,0.4215,,737.3219,753.4302,space,16.0849,,753.4303,753.9341,n,0.4912,,0,21,21,26,1,"observe object 1, observe object 2, observe object 3, observe object 4, observe object 5, observe object 6, observe object 7, observe object 8, if object of object 7 equal object of object 1 , then object of object 3 not equal object of object 5 or object of object 4 equal object of object 8 , else object of object 6 not equal object of object 2 ?",false,./for_xx/trial200/frames/epoch0.png,./for_xx/trial200/frames/epoch1.png,./for_xx/trial200/frames/epoch2.png,./for_xx/trial200/frames/epoch3.png,./for_xx/trial200/frames/epoch4.png,./for_xx/trial200/frames/epoch5.png,./for_xx/trial200/frames/epoch6.png,./for_xx/trial200/frames/epoch7.png
,,,,,Motahareh,001,2024-02-15_11h18.07.726,iwisdm_med_pcy,2023.2.3,MacIntel,30.03003003,753.9435,754.3645,space,0.3887,,754.3646,791.1491,space,36.7417,,791.1492,791.683,y,0.5034,,0,22,22,34,1,"observe object 1, delay, observe object 2, observe object 3, observe object 4, delay, observe object 5, if category of object 3 equal cars , then category of object 4 equal tables or location of object 5 not equal location of object 2 , else location of object 1 equal top left ?",true,./for_xx/trial318/frames/epoch0.png,./for_xx/trial318/frames/epoch1.png,./for_xx/trial318/frames/epoch2.png,./for_xx/trial318/frames/epoch3.png,./for_xx/trial318/frames/epoch4.png,./for_xx/trial318/frames/epoch5.png,./for_xx/trial318/frames/epoch6.png,./for_xx/nullframe.png
,,,,,Motahareh,001,2024-02-15_11h18.07.726,iwisdm_med_pcy,2023.2.3,MacIntel,30.03003003,791.695,792.0145,space,0.2953,,792.0146,807.2608,space,15.1985,,807.2609,807.7927,y,0.507099999,,0,23,23,25,1,"observe object 1, delay, observe object 2, observe object 3, observe object 4, observe object 5, observe object 6, if location of object 1 equal location of object 4 , then location of object 5 not equal bottom left , else location of object 6 equal location of object 3 or location of object 2 equal top left ?",true,./for_xx/trial4/frames/epoch0.png,./for_xx/trial4/frames/epoch1.png,./for_xx/trial4/frames/epoch2.png,./for_xx/trial4/frames/epoch3.png,./for_xx/trial4/frames/epoch4.png,./for_xx/trial4/frames/epoch5.png,./for_xx/trial4/frames/epoch6.png,./for_xx/nullframe.png
,,,,,Motahareh,001,2024-02-15_11h18.07.726,iwisdm_med_pcy,2023.2.3,MacIntel,30.03003003,807.8028,808.2938,space,0.46,,808.2938,834.0062,space,25.6818,,834.0062,834.4394,n,0.4235,,0,24,24,14,1,"observe object 1, delay, observe object 2, observe object 3, observe object 4, observe object 5, observe object 6, observe object 7, if object of object 2 equal object of object 3 , then category of object 6 not equal lighting and object of object 1 not equal object of object 4 , else category of object 7 equal category of object 5 ?",false,./for_xx/trial307/frames/epoch0.png,./for_xx/trial307/frames/epoch1.png,./for_xx/trial307/frames/epoch2.png,./for_xx/trial307/frames/epoch3.png,./for_xx/trial307/frames/epoch4.png,./for_xx/trial307/frames/epoch5.png,./for_xx/trial307/frames/epoch6.png,./for_xx/trial307/frames/epoch7.png
,,,,,Motahareh,001,2024-02-15_11h18.07.726,iwisdm_med_pcy,2023.2.3,MacIntel,30.03003003,834.4483,834.7025,space,0.2221,,834.7025,860.5511,space,25.8042,,860.5511,861.1166,y,0.5569,,0,25,25,29,1,"observe object 1, observe object 2, observe object 3, observe object 4, observe object 5, observe object 6, observe object 7, observe object 8, if object of object 8 not equal object of object 1 , then object of object 3 not equal object of object 5 and object of object 4 not equal object of object 7 , else object of object 2 equal object of object 6 ?",true,./for_xx/trial206/frames/epoch0.png,./for_xx/trial206/frames/epoch1.png,./for_xx/trial206/frames/epoch2.png,./for_xx/trial206/frames/epoch3.png,./for_xx/trial206/frames/epoch4.png,./for_xx/trial206/frames/epoch5.png,./for_xx/trial206/frames/epoch6.png,./for_xx/trial206/frames/epoch7.png
,,,,,Motahareh,001,2024-02-15_11h18.07.726,iwisdm_med_pcy,2023.2.3,MacIntel,30.03003003,861.1248,861.4125,space,0.2785,,861.4125,877.3614,space,15.9294,,877.3615,877.7938,n,0.4055,,0,26,26,10,1,"observe object 1, observe object 2, observe object 3, observe object 4, observe object 5, observe object 6, observe object 7, observe object 8, if object of object 3 equal object of object 5 , then location of object 2 not equal location of object 1 and category of object 6 not equal category of object 4 , else location of object 8 not equal location of object 7 ?",false,./for_xx/trial315/frames/epoch0.png,./for_xx/trial315/frames/epoch1.png,./for_xx/trial315/frames/epoch2.png,./for_xx/trial315/frames/epoch3.png,./for_xx/trial315/frames/epoch4.png,./for_xx/trial315/frames/epoch5.png,./for_xx/trial315/frames/epoch6.png,./for_xx/trial315/frames/epoch7.png
,,,,,Motahareh,001,2024-02-15_11h18.07.726,iwisdm_med_pcy,2023.2.3,MacIntel,30.03003003,877.8034,878.2908,space,0.4483,,878.2908,898.4384,space,20.115,,898.4384,898.8042,n,0.355200001,,0,27,27,28,1,"observe object 1, delay, observe object 2, observe object 3, observe object 4, observe object 5, observe object 6, observe object 7, if location of object 7 equal top right , then location of object 3 equal location of object 5 and location of object 4 equal location of object 2 , else location of object 1 not equal location of object 6 ?",false,./for_xx/trial3/frames/epoch0.png,./for_xx/trial3/frames/epoch1.png,./for_xx/trial3/frames/epoch2.png,./for_xx/trial3/frames/epoch3.png,./for_xx/trial3/frames/epoch4.png,./for_xx/trial3/frames/epoch5.png,./for_xx/trial3/frames/epoch6.png,./for_xx/trial3/frames/epoch7.png
,,,,,Motahareh,001,2024-02-15_11h18.07.726,iwisdm_med_pcy,2023.2.3,MacIntel,30.03003003,898.8141,899.2339,space,0.4078,,899.2339,937.69,space,38.4096,,937.69,938.289,y,0.5729,,0,28,28,42,1,"observe object 1, observe object 2, observe object 3, observe object 4, observe object 5, observe object 6, observe object 7, observe object 8, if category of object 4 not equal category of object 2 and object of object 5 not equal object of object 6 , then object of object 3 not equal object of object 1 , else object of object 8 not equal object of object 7 ?",true,./for_xx/trial304/frames/epoch0.png,./for_xx/trial304/frames/epoch1.png,./for_xx/trial304/frames/epoch2.png,./for_xx/trial304/frames/epoch3.png,./for_xx/trial304/frames/epoch4.png,./for_xx/trial304/frames/epoch5.png,./for_xx/trial304/frames/epoch6.png,./for_xx/trial304/frames/epoch7.png
,,,,,Motahareh,001,2024-02-15_11h18.07.726,iwisdm_med_pcy,2023.2.3,MacIntel,30.03003003,938.2994,938.7541,space,0.422900001,,938.7542,978.7128,space,39.9093,,978.7129,979.279,y,0.5372,,0,29,29,11,1,"observe object 1, observe object 2, observe object 3, delay, observe object 4, observe object 5, observe object 6, observe object 7, if object of object 7 not equal object of object 3 and location of object 6 not equal location of object 4 , then category of object 1 not equal category of object 2 , else category of object 5 equal benches ?",true,./for_xx/trial312/frames/epoch0.png,./for_xx/trial312/frames/epoch1.png,./for_xx/trial312/frames/epoch2.png,./for_xx/trial312/frames/epoch3.png,./for_xx/trial312/frames/epoch4.png,./for_xx/trial312/frames/epoch5.png,./for_xx/trial312/frames/epoch6.png,./for_xx/trial312/frames/epoch7.png
,,,,,Motahareh,001,2024-02-15_11h18.07.726,iwisdm_med_pcy,2023.2.3,MacIntel,30.03003003,979.2888,979.7425,space,0.4382,,979.7426,1003.5237,space,23.7406,,1003.5239,1004.1874,n,0.6372,,0,30,30,27,1,"observe object 1, observe object 2, observe object 3, observe object 4, observe object 5, observe object 6, observe object 7, observe object 8, if object of object 8 not equal object of object 1 , then object of object 6 not equal object of object 2 , else object of object 3 equal object of object 5 and object of object 4 not equal object of object 7 ?",false,./for_xx/trial207/frames/epoch0.png,./for_xx/trial207/frames/epoch1.png,./for_xx/trial207/frames/epoch2.png,./for_xx/trial207/frames/epoch3.png,./for_xx/trial207/frames/epoch4.png,./for_xx/trial207/frames/epoch5.png,./for_xx/trial207/frames/epoch6.png,./for_xx/trial207/frames/epoch7.png
,,,,,Motahareh,001,2024-02-15_11h18.07.726,iwisdm_med_pcy,2023.2.3,MacIntel,30.03003003,1004.1969,1004.6899,space,0.4553,,1004.6899,1087.9366,space,83.2024,,1087.9366,1088.3702,y,0.4237,,0,31,31,16,1,"observe object 1, observe object 2, delay, observe object 3, observe object 4, observe object 5, observe object 6, if category of object 6 not equal category of object 5 and location of object 3 equal bottom right , then object of object 1 equal object of object 2 , else location of object 4 equal top left ?",true,./for_xx/trial309/frames/epoch0.png,./for_xx/trial309/frames/epoch1.png,./for_xx/trial309/frames/epoch2.png,./for_xx/trial309/frames/epoch3.png,./for_xx/trial309/frames/epoch4.png,./for_xx/trial309/frames/epoch5.png,./for_xx/trial309/frames/epoch6.png,./for_xx/trial309/frames/epoch7.png
,,,,,Motahareh,001,2024-02-15_11h18.07.726,iwisdm_med_pcy,2023.2.3,MacIntel,30.03003003,1088.3821,1089.5698,space,1.1774,,1089.5699,1118.2856,space,28.6685,,1118.2857,1118.6535,n,0.333,,0,32,32,4,1,"observe object 1, observe object 2, observe object 3, observe object 4, observe object 5, observe object 6, observe object 7, observe object 8, if object of object 4 not equal object of object 2 and object of object 5 not equal object of object 8 , then object of object 7 equal object of object 6 , else object of object 1 not equal object of object 3 ?",false,./for_xx/trial203/frames/epoch0.png,./for_xx/trial203/frames/epoch1.png,./for_xx/trial203/frames/epoch2.png,./for_xx/trial203/frames/epoch3.png,./for_xx/trial203/frames/epoch4.png,./for_xx/trial203/frames/epoch5.png,./for_xx/trial203/frames/epoch6.png,./for_xx/trial203/frames/epoch7.png
,,,,,Motahareh,001,2024-02-15_11h18.07.726,iwisdm_med_pcy,2023.2.3,MacIntel,30.03003003,1118.6631,1119.0528,space,0.3536,,1119.0528,1244.4485,space,125.3613,,1244.4486,1244.8483,y,0.3692,,0,33,33,12,1,"observe object 1, observe object 2, delay, observe object 3, observe object 4, observe object 5, observe object 6, observe object 7, if location of object 4 equal location of object 3 , then object of object 1 not equal object of object 7 or location of object 2 equal top left , else category of object 6 equal category of object 5 ?",true,./for_xx/trial313/frames/epoch0.png,./for_xx/trial313/frames/epoch1.png,./for_xx/trial313/frames/epoch2.png,./for_xx/trial313/frames/epoch3.png,./for_xx/trial313/frames/epoch4.png,./for_xx/trial313/frames/epoch5.png,./for_xx/trial313/frames/epoch6.png,./for_xx/trial313/frames/epoch7.png
,,,,,Motahareh,001,2024-02-15_11h18.07.726,iwisdm_med_pcy,2023.2.3,MacIntel,30.03003003,1244.8577,1245.1816,space,0.292900001,,1245.1816,1271.7941,space,26.5723,,1271.7943,1272.0594,n,0.2356,,0,34,34,3,1,"observe object 1, observe object 2, observe object 3, observe object 4, delay, observe object 5, observe object 6, observe object 7, if location of object 6 not equal location of object 7 , then location of object 5 equal top right , else location of object 2 not equal location of object 3 or location of object 1 equal location of object 4 ?",false,./for_xx/trial7/frames/epoch0.png,./for_xx/trial7/frames/epoch1.png,./for_xx/trial7/frames/epoch2.png,./for_xx/trial7/frames/epoch3.png,./for_xx/trial7/frames/epoch4.png,./for_xx/trial7/frames/epoch5.png,./for_xx/trial7/frames/epoch6.png,./for_xx/trial7/frames/epoch7.png
,,,,,Motahareh,001,2024-02-15_11h18.07.726,iwisdm_med_pcy,2023.2.3,MacIntel,30.03003003,1272.0688,1272.2928,space,0.2098,,1272.2929,1313.9399,space,41.612,,1313.94,1314.1759,n,0.2176,,0,35,35,0,1,"observe object 1, observe object 2, observe object 3, observe object 4, observe object 5, observe object 6, observe object 7, observe object 8, if location of object 1 not equal location of object 8 or location of object 2 equal location of object 6 , then location of object 5 not equal location of object 7 , else location of object 3 equal location of object 4 ?",false,./for_xx/trial9/frames/epoch0.png,./for_xx/trial9/frames/epoch1.png,./for_xx/trial9/frames/epoch2.png,./for_xx/trial9/frames/epoch3.png,./for_xx/trial9/frames/epoch4.png,./for_xx/trial9/frames/epoch5.png,./for_xx/trial9/frames/epoch6.png,./for_xx/trial9/frames/epoch7.png
,,,,,Motahareh,001,2024-02-15_11h18.07.726,iwisdm_med_pcy,2023.2.3,MacIntel,30.03003003,1314.1877,1314.8092,space,0.6081,,1314.8093,1370.8346,space,56.0069,,1370.8347,1371.133,n,0.2672,,0,36,36,22,1,"observe object 1, observe object 2, observe object 3, observe object 4, observe object 5, delay, observe object 6, observe object 7, if category of object 3 equal category of object 2 , then object of object 1 not equal object of object 5 , else category of object 7 equal couches and object of object 4 not equal object of object 6 ?",false,./for_xx/trial301/frames/epoch0.png,./for_xx/trial301/frames/epoch1.png,./for_xx/trial301/frames/epoch2.png,./for_xx/trial301/frames/epoch3.png,./for_xx/trial301/frames/epoch4.png,./for_xx/trial301/frames/epoch5.png,./for_xx/trial301/frames/epoch6.png,./for_xx/trial301/frames/epoch7.png
,,,,,Motahareh,001,2024-02-15_11h18.07.726,iwisdm_med_pcy,2023.2.3,MacIntel,30.03003003,1371.1434,1371.3339,space,0.1798,,1371.334,1396.4398,space,25.0685,,1396.44,1396.7065,n,0.2367,,0,37,37,35,1,"observe object 1, observe object 2, observe object 3, observe object 4, delay, observe object 5, observe object 6, observe object 7, if category of object 2 not equal benches , then category of object 1 equal category of object 6 , else object of object 3 equal object of object 5 and location of object 4 not equal location of object 7 ?",false,./for_xx/trial311/frames/epoch0.png,./for_xx/trial311/frames/epoch1.png,./for_xx/trial311/frames/epoch2.png,./for_xx/trial311/frames/epoch3.png,./for_xx/trial311/frames/epoch4.png,./for_xx/trial311/frames/epoch5.png,./for_xx/trial311/frames/epoch6.png,./for_xx/trial311/frames/epoch7.png
,,,,,Motahareh,001,2024-02-15_11h18.07.726,iwisdm_med_pcy,2023.2.3,MacIntel,30.03003003,1396.7177,1396.9355,space,0.203400001,,1396.9355,1411.7472,space,14.7859,,1411.7473,1411.9811,n,0.2233,,0,38,38,40,1,"observe object 1, observe object 2, observe object 3, observe object 4, observe object 5, observe object 6, observe object 7, observe object 8, if location of object 1 not equal location of object 4 and location of object 8 not equal location of object 3 , then category of object 7 not equal category of object 6 , else object of object 2 not equal object of object 5 ?",false,./for_xx/trial303/frames/epoch0.png,./for_xx/trial303/frames/epoch1.png,./for_xx/trial303/frames/epoch2.png,./for_xx/trial303/frames/epoch3.png,./for_xx/trial303/frames/epoch4.png,./for_xx/trial303/frames/epoch5.png,./for_xx/trial303/frames/epoch6.png,./for_xx/trial303/frames/epoch7.png
,,,,,Motahareh,001,2024-02-15_11h18.07.726,iwisdm_med_pcy,2023.2.3,MacIntel,30.03003003,1411.9916,1412.2457,space,0.2426,,1412.2458,1432.1251,space,19.8465,,1432.1252,1432.358,n,0.221,,0,39,39,49,1,"observe object 1, delay, observe object 2, observe object 3, observe object 4, delay, observe object 5, if location of object 2 equal bottom left , then location of object 5 not equal top left or category of object 3 not equal benches , else location of object 1 not equal location of object 4 ?",false,./for_xx/trial302/frames/epoch0.png,./for_xx/trial302/frames/epoch1.png,./for_xx/trial302/frames/epoch2.png,./for_xx/trial302/frames/epoch3.png,./for_xx/trial302/frames/epoch4.png,./for_xx/trial302/frames/epoch5.png,./for_xx/trial302/frames/epoch6.png,./for_xx/nullframe.png
,,,,,Motahareh,001,2024-02-15_11h18.07.726,iwisdm_med_pcy,2023.2.3,MacIntel,30.03003003,1432.3671,1432.6225,space,0.245,,1432.6225,1515.8922,space,83.2362,,1515.8924,1516.3253,y,0.4,,0,40,40,13,1,"observe object 1, observe object 2, observe object 3, delay, observe object 4, delay, observe object 5, observe object 6, if category of object 6 equal benches and location of object 3 not equal top left , then location of object 2 not equal location of object 1 , else category of object 4 not equal category of object 5 ?",true,./for_xx/trial314/frames/epoch0.png,./for_xx/trial314/frames/epoch1.png,./for_xx/trial314/frames/epoch2.png,./for_xx/trial314/frames/epoch3.png,./for_xx/trial314/frames/epoch4.png,./for_xx/trial314/frames/epoch5.png,./for_xx/trial314/frames/epoch6.png,./for_xx/trial314/frames/epoch7.png
,,,,,Motahareh,001,2024-02-15_11h18.07.726,iwisdm_med_pcy,2023.2.3,MacIntel,30.03003003,1516.3381,1516.6578,space,0.2815,,1516.6578,1543.6057,space,26.9048,,1543.6059,1544.0737,y,0.4393,,0,41,41,46,1,"observe object 1, delay, observe object 2, observe object 3, observe object 4, observe object 5, observe object 6, observe object 7, if category of object 3 not equal lighting or category of object 7 not equal category of object 6 , then category of object 1 equal category of object 2 , else category of object 4 equal category of object 5 ?",true,./for_xx/trial101/frames/epoch0.png,./for_xx/trial101/frames/epoch1.png,./for_xx/trial101/frames/epoch2.png,./for_xx/trial101/frames/epoch3.png,./for_xx/trial101/frames/epoch4.png,./for_xx/trial101/frames/epoch5.png,./for_xx/trial101/frames/epoch6.png,./for_xx/trial101/frames/epoch7.png
,,,,,Motahareh,001,2024-02-15_11h18.07.726,iwisdm_med_pcy,2023.2.3,MacIntel,30.03003003,1544.0834,1544.4399,space,0.321099999,,1544.4399,1561.8801,space,17.398,,1561.8802,1562.214,y,0.3248,,0,42,42,32,1,"observe object 1, observe object 2, observe object 3, observe object 4, observe object 5, observe object 6, observe object 7, observe object 8, if object of object 5 not equal object of object 1 , then object of object 4 equal object of object 6 or object of object 3 equal object of object 8 , else object of object 2 not equal object of object 7 ?",true,./for_xx/trial201/frames/epoch0.png,./for_xx/trial201/frames/epoch1.png,./for_xx/trial201/frames/epoch2.png,./for_xx/trial201/frames/epoch3.png,./for_xx/trial201/frames/epoch4.png,./for_xx/trial201/frames/epoch5.png,./for_xx/trial201/frames/epoch6.png,./for_xx/trial201/frames/epoch7.png
,,,,,Motahareh,001,2024-02-15_11h18.07.726,iwisdm_med_pcy,2023.2.3,MacIntel,30.03003003,1562.2248,1562.5812,space,0.3336,,1562.5813,1585.0236,space,22.4036,,1585.0237,1585.2922,n,0.2478,,0,43,43,43,1,"observe object 1, observe object 2, observe object 3, observe object 4, observe object 5, observe object 6, if category of object 1 not equal benches and category of object 2 not equal category of object 4 , then category of object 3 equal tables , else category of object 6 equal category of object 5 ?",false,./for_xx/trial100/frames/epoch0.png,./for_xx/trial100/frames/epoch1.png,./for_xx/trial100/frames/epoch2.png,./for_xx/trial100/frames/epoch3.png,./for_xx/trial100/frames/epoch4.png,./for_xx/trial100/frames/epoch5.png,./for_xx/nullframe.png,./for_xx/nullframe.png
,,,,,Motahareh,001,2024-02-15_11h18.07.726,iwisdm_med_pcy,2023.2.3,MacIntel,30.03003003,1585.302,1585.5595,space,0.2396,,1585.5595,1604.3647,space,18.7794,,1604.3648,1604.8688,y,0.4838,,0,44,44,21,1,"observe object 1, delay, observe object 2, observe object 3, observe object 4, observe object 5, observe object 6, if category of object 5 not equal tables , then category of object 1 equal boats or category of object 3 not equal category of object 2 , else category of object 4 equal category of object 6 ?",true,./for_xx/trial105/frames/epoch0.png,./for_xx/trial105/frames/epoch1.png,./for_xx/trial105/frames/epoch2.png,./for_xx/trial105/frames/epoch3.png,./for_xx/trial105/frames/epoch4.png,./for_xx/trial105/frames/epoch5.png,./for_xx/trial105/frames/epoch6.png,./for_xx/trial105/frames/epoch7.png
,,,,,Motahareh,001,2024-02-15_11h18.07.726,iwisdm_med_pcy,2023.2.3,MacIntel,30.03003003,1604.8799,1605.2689,space,0.3514,,1605.269,1676.9331,space,71.6408,,1676.9332,1677.5324,y,0.581,,0,45,45,48,1,"observe object 1, observe object 2, observe object 3, observe object 4, observe object 5, observe object 6, observe object 7, observe object 8, if location of object 3 equal location of object 5 and object of object 2 not equal object of object 7 , then object of object 1 not equal object of object 4 , else object of object 8 equal object of object 6 ?",true,./for_xx/trial305/frames/epoch0.png,./for_xx/trial305/frames/epoch1.png,./for_xx/trial305/frames/epoch2.png,./for_xx/trial305/frames/epoch3.png,./for_xx/trial305/frames/epoch4.png,./for_xx/trial305/frames/epoch5.png,./for_xx/trial305/frames/epoch6.png,./for_xx/trial305/frames/epoch7.png
,,,,,Motahareh,001,2024-02-15_11h18.07.726,iwisdm_med_pcy,2023.2.3,MacIntel,30.03003003,1677.5413,1678.2664,space,0.7038,,1678.2665,1701.0167,space,22.7042,,1701.0168,1701.2822,n,0.2347,,0,46,46,8,1,"observe object 1, observe object 2, observe object 3, observe object 4, observe object 5, observe object 6, observe object 7, if location of object 7 equal location of object 1 , then location of object 5 equal location of object 6 or location of object 3 equal location of object 4 , else location of object 2 equal top right ?",false,./for_xx/trial1/frames/epoch0.png,./for_xx/trial1/frames/epoch1.png,./for_xx/trial1/frames/epoch2.png,./for_xx/trial1/frames/epoch3.png,./for_xx/trial1/frames/epoch4.png,./for_xx/trial1/frames/epoch5.png,./for_xx/trial1/frames/epoch6.png,./for_xx/nullframe.png
,,,,,Motahareh,001,2024-02-15_11h18.07.726,iwisdm_med_pcy,2023.2.3,MacIntel,30.03003003,1701.2917,1701.5493,space,0.2215,,1701.5493,1724.3576,space,22.765,,1724.3577,1724.5564,n,0.1905,,0,47,47,18,1,"observe object 1, delay, observe object 2, observe object 3, observe object 4, observe object 5, observe object 6, observe object 7, if category of object 6 not equal category of object 3 , then category of object 7 equal category of object 2 and category of object 1 not equal couches , else category of object 4 equal category of object 5 ?",false,./for_xx/trial103/frames/epoch0.png,./for_xx/trial103/frames/epoch1.png,./for_xx/trial103/frames/epoch2.png,./for_xx/trial103/frames/epoch3.png,./for_xx/trial103/frames/epoch4.png,./for_xx/trial103/frames/epoch5.png,./for_xx/trial103/frames/epoch6.png,./for_xx/trial103/frames/epoch7.png
,,,,,Motahareh,001,2024-02-15_11h18.07.726,iwisdm_med_pcy,2023.2.3,MacIntel,30.03003003,1724.5672,1724.7896,space,0.209200001,,1724.7896,1745.4684,space,20.6622,,1745.4685,1746.635,y,1.1325,,0,48,48,47,1,"observe object 1, observe object 2, observe object 3, observe object 4, observe object 5, observe object 6, if category of object 5 equal category of object 1 , then category of object 6 equal cars and category of object 4 equal category of object 2 , else category of object 3 not equal chairs ?",true,./for_xx/trial108/frames/epoch0.png,./for_xx/trial108/frames/epoch1.png,./for_xx/trial108/frames/epoch2.png,./for_xx/trial108/frames/epoch3.png,./for_xx/trial108/frames/epoch4.png,./for_xx/trial108/frames/epoch5.png,./for_xx/nullframe.png,./for_xx/nullframe.png
,,,,,Motahareh,001,2024-02-15_11h18.07.726,iwisdm_med_pcy,2023.2.3,MacIntel,30.03003003,1746.6466,1747.2013,space,0.5266,,1747.2014,1785.4861,space,38.2398,,1785.4862,1785.7526,n,0.260299999,,0,49,49,39,1,"observe object 1, observe object 2, observe object 3, delay, observe object 4, observe object 5, observe object 6, observe object 7, if object of object 6 not equal object of object 4 , then location of object 5 equal bottom right , else object of object 7 not equal object of object 3 and category of object 1 not equal category of object 2 ?",false,./for_xx/trial319/frames/epoch0.png,./for_xx/trial319/frames/epoch1.png,./for_xx/trial319/frames/epoch2.png,./for_xx/trial319/frames/epoch3.png,./for_xx/trial319/frames/epoch4.png,./for_xx/trial319/frames/epoch5.png,./for_xx/trial319/frames/epoch6.png,./for_xx/trial319/frames/epoch7.png